rewardval1,rewardval2,rewardval3,rewardval4,rewardval5,tree1_n,tree2_p,time.thisRepN,time.thisTrialN,time.thisN,time.thisIndex,reward1.thisRepN,reward1.thisTrialN,reward1.thisN,reward1.thisIndex,pos_1.thisRepN,pos_1.thisTrialN,pos_1.thisN,pos_1.thisIndex,reward2.thisRepN,reward2.thisTrialN,reward2.thisN,reward2.thisIndex,introtext.started,introtext.stopped,tree1_18.started,tree1_18.stopped,tree2_18.started,tree2_18.stopped,tree3_18.started,tree3_18.stopped,tree4_18.started,tree4_18.stopped,circle1.started,circle1.stopped,wait_7.started,wait_7.stopped,forward_11.started,forward_11.stopped,squaree_3.started,squaree_3.stopped,mouse_3.x,mouse_3.y,mouse_3.leftButton,mouse_3.midButton,mouse_3.rightButton,mouse_3.clicked_name,mouse_3.started,mouse_3.stopped,tree1_12.started,tree1_12.stopped,tree2_12.started,tree2_12.stopped,tree3_12.started,tree3_12.stopped,tree4_12.started,tree4_12.stopped,circle2.started,circle2.stopped,wait_3.started,wait_3.stopped,forward_2.started,forward_2.stopped,squaree_2.started,squaree_2.stopped,gcircle.started,gcircle.stopped,tree1_4.started,tree1_4.stopped,tree2_4.started,tree2_4.stopped,tree3_4.started,tree3_4.stopped,tree4_4.started,tree4_4.stopped,circle3.started,circle3.stopped,reward_2.started,reward_2.stopped,resp.started,resp.stopped,forward.started,forward.stopped,key_resp.keys,key_resp.started,key_resp.stopped,sol.x,sol.y,sol.leftButton,sol.midButton,sol.rightButton,sol.clicked_name,sol.started,sol.stopped,gcircle_2.started,gcircle_2.stopped,skipsq.started,skipsq.stopped,tree1_19.started,tree1_19.stopped,tree2_19.started,tree2_19.stopped,tree3_19.started,tree3_19.stopped,tree4_19.started,tree4_19.stopped,circle4.started,circle4.stopped,wait_8.started,wait_8.stopped,forward_12.started,forward_12.stopped,squaree_4.started,squaree_4.stopped,gcircle_3.started,gcircle_3.stopped,reward_7.started,reward_7.stopped,gcircle_4.started,gcircle_4.stopped,tree1_6.started,tree1_6.stopped,tree2_6.started,tree2_6.stopped,tree3_6.started,tree3_6.stopped,tree4_6.started,tree4_6.stopped,circle5.started,circle5.stopped,participant,session,date,expName,psychopyVersion,frameRate,
7.5,7.3,7.6,7.1,7.4,,,0,0,0,0,0,0,0,0,,,,,,,,,8.000319004058838,None,9.037126064300537,None,9.037126064300537,9.037126064300537,9.037126064300537,9.037126064300537,9.037126064300537,9.037126064300537,9.037126064300537,None,9.037126064300537,9.037126064300537,9.037126064300537,None,9.037126064300537,9.037126064300537,-0.005555555555555556,-0.2175925925925926,1,0,0,circle1,0.011111021041870117,None,10.313457012176514,None,10.313457012176514,10.313457012176514,10.313457012176514,10.313457012176514,10.313457012176514,10.313457012176514,10.313457012176514,None,10.313457012176514,10.313457012176514,10.313457012176514,None,10.313457012176514,10.313457012176514,10.313457012176514,10.313457012176514,11.348831176757812,None,11.348831176757812,11.348831176757812,11.348831176757812,11.348831176757812,11.348831176757812,11.348831176757812,11.348831176757812,None,11.348831176757812,11.348831176757812,0.009170770645141602,0.009170770645141602,11.348831176757812,None,None,11.348831176757812,11.348831176757812,-0.45740740740740743,-0.2212962962962963,1,0,0,tree1_4,0.009170770645141602,None,11.348831176757812,None,11.348831176757812,None,13.08794116973877,None,13.08794116973877,13.08794116973877,13.08794116973877,13.08794116973877,13.08794116973877,13.08794116973877,13.08794116973877,None,13.08794116973877,13.08794116973877,13.08794116973877,None,13.08794116973877,13.08794116973877,13.08794116973877,13.08794116973877,13.08794116973877,None,13.08794116973877,None,,,,,,,,,,,,001,2021_Jul_30_2206,untitled,2020.2.10,None,
7.1,6.9,7.1,6.6,6.8,,,0,0,0,0,0,1,1,1,,,,,,,,,,,14.109801054000854,None,14.109801054000854,14.109801054000854,14.109801054000854,14.109801054000854,14.109801054000854,14.109801054000854,14.109801054000854,None,14.109801054000854,14.109801054000854,14.109801054000854,None,14.109801054000854,14.109801054000854,-0.020370370370370372,-0.18981481481481483,1,0,0,circle1,0.012812376022338867,None,14.677211046218872,None,14.677211046218872,14.677211046218872,14.677211046218872,14.677211046218872,14.677211046218872,14.677211046218872,14.677211046218872,None,14.677211046218872,14.677211046218872,14.677211046218872,None,14.677211046218872,14.677211046218872,14.677211046218872,14.677211046218872,15.694833040237427,None,15.694833040237427,15.694833040237427,15.694833040237427,15.694833040237427,15.694833040237427,15.694833040237427,15.694833040237427,None,15.694833040237427,15.694833040237427,0.007930755615234375,0.007930755615234375,15.694833040237427,None,None,15.694833040237427,15.694833040237427,-0.5203703703703704,-0.18888888888888888,1,0,0,tree1_4,0.007930755615234375,None,15.694833040237427,None,15.694833040237427,None,16.74365520477295,None,16.74365520477295,16.74365520477295,16.74365520477295,16.74365520477295,16.74365520477295,16.74365520477295,16.74365520477295,None,16.74365520477295,16.74365520477295,16.74365520477295,None,16.74365520477295,16.74365520477295,16.74365520477295,16.74365520477295,16.74365520477295,None,16.74365520477295,None,,,,,,,,,,,,001,2021_Jul_30_2206,untitled,2020.2.10,None,
6.2,6.2,6.8,6.1,6.1,,,0,0,0,0,0,2,2,2,,,,,,,,,,,17.77808403968811,None,17.77808403968811,17.77808403968811,17.77808403968811,17.77808403968811,17.77808403968811,17.77808403968811,17.77808403968811,None,17.77808403968811,17.77808403968811,17.77808403968811,None,17.77808403968811,17.77808403968811,-0.005555555555555556,-0.20277777777777778,1,0,0,circle1,0.01099252700805664,None,18.33944010734558,None,18.33944010734558,18.33944010734558,18.33944010734558,18.33944010734558,18.33944010734558,18.33944010734558,18.33944010734558,None,18.33944010734558,18.33944010734558,18.33944010734558,None,18.33944010734558,18.33944010734558,18.33944010734558,18.33944010734558,19.365292072296143,None,19.365292072296143,19.365292072296143,19.365292072296143,19.365292072296143,19.365292072296143,19.365292072296143,19.365292072296143,None,19.365292072296143,19.365292072296143,0.003638744354248047,0.003638744354248047,19.365292072296143,None,None,19.365292072296143,19.365292072296143,0.4787037037037037,-0.22314814814814815,1,0,0,skipsq,0.003638744354248047,None,19.365292072296143,None,19.365292072296143,None,None,None,None,None,None,None,None,None,None,None,None,None,None,None,None,None,None,None,None,None,None,None,,,,,,,,,,,,001,2021_Jul_30_2206,untitled,2020.2.10,None,
,,,,,-0.2,-0.6,0,0,0,0,,,,,0,0,0,0,,,,,,,,,,,,,,,,,,,,,,,,,,,,,,,,,,,,,,,,,,,,,,,,,,,,,,,,,,,,,,,,,,,,,,,,,,,,,,,,,,,,,,,,,,,,,,,,,,,,,,21.087852001190186,None,21.087852001190186,None,21.087852001190186,21.087852001190186,21.087852001190186,21.087852001190186,21.087852001190186,None,,001,2021_Jul_30_2206,untitled,2020.2.10,None,
,,,,,-0.21,-0.6,0,0,0,0,,,,,0,1,1,1,,,,,,,,,,,,,,,,,,,,,,,,,,,,,,,,,,,,,,,,,,,,,,,,,,,,,,,,,,,,,,,,,,,,,,,,,,,,,,,,,,,,,,,,,,,,,,,,,,,,,,21.24587106704712,21.24587106704712,21.24587106704712,21.24587106704712,21.24587106704712,21.24587106704712,21.24587106704712,21.24587106704712,21.24587106704712,21.24587106704712,,001,2021_Jul_30_2206,untitled,2020.2.10,None,
,,,,,-0.22,-0.6,0,0,0,0,,,,,0,2,2,2,,,,,,,,,,,,,,,,,,,,,,,,,,,,,,,,,,,,,,,,,,,,,,,,,,,,,,,,,,,,,,,,,,,,,,,,,,,,,,,,,,,,,,,,,,,,,,,,,,,,,,21.478924036026,21.478924036026,21.478924036026,21.478924036026,21.478924036026,21.478924036026,21.478924036026,21.478924036026,21.478924036026,21.478924036026,,001,2021_Jul_30_2206,untitled,2020.2.10,None,
,,,,,-0.23,-0.6,0,0,0,0,,,,,0,3,3,3,,,,,,,,,,,,,,,,,,,,,,,,,,,,,,,,,,,,,,,,,,,,,,,,,,,,,,,,,,,,,,,,,,,,,,,,,,,,,,,,,,,,,,,,,,,,,,,,,,,,,,21.672908067703247,21.672908067703247,21.672908067703247,21.672908067703247,21.672908067703247,21.672908067703247,21.672908067703247,21.672908067703247,21.672908067703247,21.672908067703247,,001,2021_Jul_30_2206,untitled,2020.2.10,None,
,,,,,-0.24,-0.6,0,0,0,0,,,,,0,4,4,4,,,,,,,,,,,,,,,,,,,,,,,,,,,,,,,,,,,,,,,,,,,,,,,,,,,,,,,,,,,,,,,,,,,,,,,,,,,,,,,,,,,,,,,,,,,,,,,,,,,,,,21.86811399459839,21.86811399459839,21.86811399459839,21.86811399459839,21.86811399459839,21.86811399459839,21.86811399459839,21.86811399459839,21.86811399459839,21.86811399459839,,001,2021_Jul_30_2206,untitled,2020.2.10,None,
,,,,,-0.25,-0.6,0,0,0,0,,,,,0,5,5,5,,,,,,,,,,,,,,,,,,,,,,,,,,,,,,,,,,,,,,,,,,,,,,,,,,,,,,,,,,,,,,,,,,,,,,,,,,,,,,,,,,,,,,,,,,,,,,,,,,,,,,22.06274104118347,22.06274104118347,22.06274104118347,22.06274104118347,22.06274104118347,22.06274104118347,22.06274104118347,22.06274104118347,22.06274104118347,22.06274104118347,,001,2021_Jul_30_2206,untitled,2020.2.10,None,
,,,,,-0.26,-0.6,0,0,0,0,,,,,0,6,6,6,,,,,,,,,,,,,,,,,,,,,,,,,,,,,,,,,,,,,,,,,,,,,,,,,,,,,,,,,,,,,,,,,,,,,,,,,,,,,,,,,,,,,,,,,,,,,,,,,,,,,,22.258323192596436,22.258323192596436,22.258323192596436,22.258323192596436,22.258323192596436,22.258323192596436,22.258323192596436,22.258323192596436,22.258323192596436,22.258323192596436,,001,2021_Jul_30_2206,untitled,2020.2.10,None,
,,,,,-0.27,-0.6,0,0,0,0,,,,,0,7,7,7,,,,,,,,,,,,,,,,,,,,,,,,,,,,,,,,,,,,,,,,,,,,,,,,,,,,,,,,,,,,,,,,,,,,,,,,,,,,,,,,,,,,,,,,,,,,,,,,,,,,,,22.45317316055298,22.45317316055298,22.45317316055298,22.45317316055298,22.45317316055298,22.45317316055298,22.45317316055298,22.45317316055298,22.45317316055298,22.45317316055298,,001,2021_Jul_30_2206,untitled,2020.2.10,None,
,,,,,-0.28,-0.6,0,0,0,0,,,,,0,8,8,8,,,,,,,,,,,,,,,,,,,,,,,,,,,,,,,,,,,,,,,,,,,,,,,,,,,,,,,,,,,,,,,,,,,,,,,,,,,,,,,,,,,,,,,,,,,,,,,,,,,,,,22.648070096969604,22.648070096969604,22.648070096969604,22.648070096969604,22.648070096969604,22.648070096969604,22.648070096969604,22.648070096969604,22.648070096969604,22.648070096969604,,001,2021_Jul_30_2206,untitled,2020.2.10,None,
,,,,,-0.29,-0.6,0,0,0,0,,,,,0,9,9,9,,,,,,,,,,,,,,,,,,,,,,,,,,,,,,,,,,,,,,,,,,,,,,,,,,,,,,,,,,,,,,,,,,,,,,,,,,,,,,,,,,,,,,,,,,,,,,,,,,,,,,22.84224510192871,22.84224510192871,22.84224510192871,22.84224510192871,22.84224510192871,22.84224510192871,22.84224510192871,22.84224510192871,22.84224510192871,22.84224510192871,,001,2021_Jul_30_2206,untitled,2020.2.10,None,
,,,,,-0.3,-0.6,0,0,0,0,,,,,0,10,10,10,,,,,,,,,,,,,,,,,,,,,,,,,,,,,,,,,,,,,,,,,,,,,,,,,,,,,,,,,,,,,,,,,,,,,,,,,,,,,,,,,,,,,,,,,,,,,,,,,,,,,,23.0384202003479,23.0384202003479,23.0384202003479,23.0384202003479,23.0384202003479,23.0384202003479,23.0384202003479,23.0384202003479,23.0384202003479,23.0384202003479,,001,2021_Jul_30_2206,untitled,2020.2.10,None,
,,,,,-0.31,-0.6,0,0,0,0,,,,,0,11,11,11,,,,,,,,,,,,,,,,,,,,,,,,,,,,,,,,,,,,,,,,,,,,,,,,,,,,,,,,,,,,,,,,,,,,,,,,,,,,,,,,,,,,,,,,,,,,,,,,,,,,,,23.204447984695435,None,23.204447984695435,None,23.204447984695435,23.204447984695435,23.204447984695435,23.204447984695435,23.204447984695435,None,,001,2021_Jul_30_2206,untitled,2020.2.10,None,
,,,,,-0.32,-0.6,0,0,0,0,,,,,0,12,12,12,,,,,,,,,,,,,,,,,,,,,,,,,,,,,,,,,,,,,,,,,,,,,,,,,,,,,,,,,,,,,,,,,,,,,,,,,,,,,,,,,,,,,,,,,,,,,,,,,,,,,,23.291205167770386,None,23.291205167770386,None,23.291205167770386,23.291205167770386,23.291205167770386,23.291205167770386,23.291205167770386,None,,001,2021_Jul_30_2206,untitled,2020.2.10,None,
,,,,,-0.33,-0.6,0,0,0,0,,,,,0,13,13,13,,,,,,,,,,,,,,,,,,,,,,,,,,,,,,,,,,,,,,,,,,,,,,,,,,,,,,,,,,,,,,,,,,,,,,,,,,,,,,,,,,,,,,,,,,,,,,,,,,,,,,23.37691903114319,None,23.37691903114319,None,23.37691903114319,23.37691903114319,23.37691903114319,23.37691903114319,23.37691903114319,None,,001,2021_Jul_30_2206,untitled,2020.2.10,None,
,,,,,-0.34,-0.6,0,0,0,0,,,,,0,14,14,14,,,,,,,,,,,,,,,,,,,,,,,,,,,,,,,,,,,,,,,,,,,,,,,,,,,,,,,,,,,,,,,,,,,,,,,,,,,,,,,,,,,,,,,,,,,,,,,,,,,,,,23.501543045043945,None,23.501543045043945,None,23.501543045043945,23.501543045043945,23.501543045043945,23.501543045043945,23.501543045043945,None,,001,2021_Jul_30_2206,untitled,2020.2.10,None,
,,,,,-0.35,-0.6,0,0,0,0,,,,,0,15,15,15,,,,,,,,,,,,,,,,,,,,,,,,,,,,,,,,,,,,,,,,,,,,,,,,,,,,,,,,,,,,,,,,,,,,,,,,,,,,,,,,,,,,,,,,,,,,,,,,,,,,,,23.586995124816895,None,23.586995124816895,None,23.586995124816895,23.586995124816895,23.586995124816895,23.586995124816895,23.586995124816895,None,,001,2021_Jul_30_2206,untitled,2020.2.10,None,
,,,,,-0.36,-0.6,0,0,0,0,,,,,0,16,16,16,,,,,,,,,,,,,,,,,,,,,,,,,,,,,,,,,,,,,,,,,,,,,,,,,,,,,,,,,,,,,,,,,,,,,,,,,,,,,,,,,,,,,,,,,,,,,,,,,,,,,,23.67175817489624,None,23.67175817489624,None,23.67175817489624,23.67175817489624,23.67175817489624,23.67175817489624,23.67175817489624,None,,001,2021_Jul_30_2206,untitled,2020.2.10,None,
,,,,,-0.37,-0.6,0,0,0,0,,,,,0,17,17,17,,,,,,,,,,,,,,,,,,,,,,,,,,,,,,,,,,,,,,,,,,,,,,,,,,,,,,,,,,,,,,,,,,,,,,,,,,,,,,,,,,,,,,,,,,,,,,,,,,,,,,23.794668197631836,None,23.794668197631836,None,23.794668197631836,23.794668197631836,23.794668197631836,23.794668197631836,23.794668197631836,None,,001,2021_Jul_30_2206,untitled,2020.2.10,None,
,,,,,-0.38,-0.6,0,0,0,0,,,,,0,18,18,18,,,,,,,,,,,,,,,,,,,,,,,,,,,,,,,,,,,,,,,,,,,,,,,,,,,,,,,,,,,,,,,,,,,,,,,,,,,,,,,,,,,,,,,,,,,,,,,,,,,,,,23.877926111221313,None,23.877926111221313,None,23.877926111221313,23.877926111221313,23.877926111221313,23.877926111221313,23.877926111221313,None,,001,2021_Jul_30_2206,untitled,2020.2.10,None,
,,,,,-0.39,-0.6,0,0,0,0,,,,,0,19,19,19,,,,,,,,,,,,,,,,,,,,,,,,,,,,,,,,,,,,,,,,,,,,,,,,,,,,,,,,,,,,,,,,,,,,,,,,,,,,,,,,,,,,,,,,,,,,,,,,,,,,,,24.001996994018555,None,24.001996994018555,None,24.001996994018555,24.001996994018555,24.001996994018555,24.001996994018555,24.001996994018555,None,,001,2021_Jul_30_2206,untitled,2020.2.10,None,
,,,,,-0.4,0.0,0,0,0,0,,,,,0,20,20,20,,,,,,,,,,,,,,,,,,,,,,,,,,,,,,,,,,,,,,,,,,,,,,,,,,,,,,,,,,,,,,,,,,,,,,,,,,,,,,,,,,,,,,,,,,,,,,,,,,,,,,24.08954620361328,None,24.08954620361328,None,24.08954620361328,24.08954620361328,24.08954620361328,24.08954620361328,24.08954620361328,None,,001,2021_Jul_30_2206,untitled,2020.2.10,None,
,,,,,-0.6,-0.01,0,0,0,0,,,,,0,21,21,21,,,,,,,,,,,,,,,,,,,,,,,,,,,,,,,,,,,,,,,,,,,,,,,,,,,,,,,,,,,,,,,,,,,,,,,,,,,,,,,,,,,,,,,,,,,,,,,,,,,,,,24.17479419708252,None,24.17479419708252,None,24.17479419708252,24.17479419708252,24.17479419708252,24.17479419708252,24.17479419708252,None,,001,2021_Jul_30_2206,untitled,2020.2.10,None,
,,,,,-0.6,-0.02,0,0,0,0,,,,,0,22,22,22,,,,,,,,,,,,,,,,,,,,,,,,,,,,,,,,,,,,,,,,,,,,,,,,,,,,,,,,,,,,,,,,,,,,,,,,,,,,,,,,,,,,,,,,,,,,,,,,,,,,,,24.300799131393433,None,24.300799131393433,None,24.300799131393433,24.300799131393433,24.300799131393433,24.300799131393433,24.300799131393433,None,,001,2021_Jul_30_2206,untitled,2020.2.10,None,
,,,,,-0.6,-0.03,0,0,0,0,,,,,0,23,23,23,,,,,,,,,,,,,,,,,,,,,,,,,,,,,,,,,,,,,,,,,,,,,,,,,,,,,,,,,,,,,,,,,,,,,,,,,,,,,,,,,,,,,,,,,,,,,,,,,,,,,,24.385876178741455,None,24.385876178741455,None,24.385876178741455,24.385876178741455,24.385876178741455,24.385876178741455,24.385876178741455,None,,001,2021_Jul_30_2206,untitled,2020.2.10,None,
,,,,,-0.6,-0.04,0,0,0,0,,,,,0,24,24,24,,,,,,,,,,,,,,,,,,,,,,,,,,,,,,,,,,,,,,,,,,,,,,,,,,,,,,,,,,,,,,,,,,,,,,,,,,,,,,,,,,,,,,,,,,,,,,,,,,,,,,24.473427057266235,None,24.473427057266235,None,24.473427057266235,24.473427057266235,24.473427057266235,24.473427057266235,24.473427057266235,None,,001,2021_Jul_30_2206,untitled,2020.2.10,None,
,,,,,-0.6,-0.05,0,0,0,0,,,,,0,25,25,25,,,,,,,,,,,,,,,,,,,,,,,,,,,,,,,,,,,,,,,,,,,,,,,,,,,,,,,,,,,,,,,,,,,,,,,,,,,,,,,,,,,,,,,,,,,,,,,,,,,,,,24.602163076400757,None,24.602163076400757,None,24.602163076400757,24.602163076400757,24.602163076400757,24.602163076400757,24.602163076400757,None,,001,2021_Jul_30_2206,untitled,2020.2.10,None,
,,,,,-0.6,-0.06,0,0,0,0,,,,,0,26,26,26,,,,,,,,,,,,,,,,,,,,,,,,,,,,,,,,,,,,,,,,,,,,,,,,,,,,,,,,,,,,,,,,,,,,,,,,,,,,,,,,,,,,,,,,,,,,,,,,,,,,,,24.687847137451172,None,24.687847137451172,None,24.687847137451172,24.687847137451172,24.687847137451172,24.687847137451172,24.687847137451172,None,,001,2021_Jul_30_2206,untitled,2020.2.10,None,
,,,,,-0.6,-0.07,0,0,0,0,,,,,0,27,27,27,,,,,,,,,,,,,,,,,,,,,,,,,,,,,,,,,,,,,,,,,,,,,,,,,,,,,,,,,,,,,,,,,,,,,,,,,,,,,,,,,,,,,,,,,,,,,,,,,,,,,,24.775098085403442,None,24.775098085403442,None,24.775098085403442,24.775098085403442,24.775098085403442,24.775098085403442,24.775098085403442,None,,001,2021_Jul_30_2206,untitled,2020.2.10,None,
,,,,,-0.6,-0.08,0,0,0,0,,,,,0,28,28,28,,,,,,,,,,,,,,,,,,,,,,,,,,,,,,,,,,,,,,,,,,,,,,,,,,,,,,,,,,,,,,,,,,,,,,,,,,,,,,,,,,,,,,,,,,,,,,,,,,,,,,24.899152994155884,None,24.899152994155884,None,24.899152994155884,24.899152994155884,24.899152994155884,24.899152994155884,24.899152994155884,None,,001,2021_Jul_30_2206,untitled,2020.2.10,None,
,,,,,-0.6,-0.09,0,0,0,0,,,,,0,29,29,29,,,,,,,,,,,,,,,,,,,,,,,,,,,,,,,,,,,,,,,,,,,,,,,,,,,,,,,,,,,,,,,,,,,,,,,,,,,,,,,,,,,,,,,,,,,,,,,,,,,,,,24.98131012916565,None,24.98131012916565,None,24.98131012916565,24.98131012916565,24.98131012916565,24.98131012916565,24.98131012916565,None,,001,2021_Jul_30_2206,untitled,2020.2.10,None,
,,,,,-0.6,-0.1,0,0,0,0,,,,,0,30,30,30,,,,,,,,,,,,,,,,,,,,,,,,,,,,,,,,,,,,,,,,,,,,,,,,,,,,,,,,,,,,,,,,,,,,,,,,,,,,,,,,,,,,,,,,,,,,,,,,,,,,,,25.06582498550415,None,25.06582498550415,None,25.06582498550415,25.06582498550415,25.06582498550415,25.06582498550415,25.06582498550415,None,,001,2021_Jul_30_2206,untitled,2020.2.10,None,
,,,,,-0.6,-0.11,0,0,0,0,,,,,0,31,31,31,,,,,,,,,,,,,,,,,,,,,,,,,,,,,,,,,,,,,,,,,,,,,,,,,,,,,,,,,,,,,,,,,,,,,,,,,,,,,,,,,,,,,,,,,,,,,,,,,,,,,,25.190737009048462,None,25.190737009048462,None,25.190737009048462,25.190737009048462,25.190737009048462,25.190737009048462,25.190737009048462,None,,001,2021_Jul_30_2206,untitled,2020.2.10,None,
,,,,,-0.6,-0.12,0,0,0,0,,,,,0,32,32,32,,,,,,,,,,,,,,,,,,,,,,,,,,,,,,,,,,,,,,,,,,,,,,,,,,,,,,,,,,,,,,,,,,,,,,,,,,,,,,,,,,,,,,,,,,,,,,,,,,,,,,25.273437023162842,None,25.273437023162842,None,25.273437023162842,25.273437023162842,25.273437023162842,25.273437023162842,25.273437023162842,None,,001,2021_Jul_30_2206,untitled,2020.2.10,None,
,,,,,-0.6,-0.13,0,0,0,0,,,,,0,33,33,33,,,,,,,,,,,,,,,,,,,,,,,,,,,,,,,,,,,,,,,,,,,,,,,,,,,,,,,,,,,,,,,,,,,,,,,,,,,,,,,,,,,,,,,,,,,,,,,,,,,,,,25.40119504928589,None,25.40119504928589,None,25.40119504928589,25.40119504928589,25.40119504928589,25.40119504928589,25.40119504928589,None,,001,2021_Jul_30_2206,untitled,2020.2.10,None,
,,,,,-0.6,-0.14,0,0,0,0,,,,,0,34,34,34,,,,,,,,,,,,,,,,,,,,,,,,,,,,,,,,,,,,,,,,,,,,,,,,,,,,,,,,,,,,,,,,,,,,,,,,,,,,,,,,,,,,,,,,,,,,,,,,,,,,,,25.487027168273926,None,25.487027168273926,None,25.487027168273926,25.487027168273926,25.487027168273926,25.487027168273926,25.487027168273926,None,,001,2021_Jul_30_2206,untitled,2020.2.10,None,
,,,,,-0.6,-0.15,0,0,0,0,,,,,0,35,35,35,,,,,,,,,,,,,,,,,,,,,,,,,,,,,,,,,,,,,,,,,,,,,,,,,,,,,,,,,,,,,,,,,,,,,,,,,,,,,,,,,,,,,,,,,,,,,,,,,,,,,,25.574311017990112,None,25.574311017990112,None,25.574311017990112,25.574311017990112,25.574311017990112,25.574311017990112,25.574311017990112,None,,001,2021_Jul_30_2206,untitled,2020.2.10,None,
,,,,,-0.6,-0.16,0,0,0,0,,,,,0,36,36,36,,,,,,,,,,,,,,,,,,,,,,,,,,,,,,,,,,,,,,,,,,,,,,,,,,,,,,,,,,,,,,,,,,,,,,,,,,,,,,,,,,,,,,,,,,,,,,,,,,,,,,25.70015001296997,None,25.70015001296997,None,25.70015001296997,25.70015001296997,25.70015001296997,25.70015001296997,25.70015001296997,None,,001,2021_Jul_30_2206,untitled,2020.2.10,None,
,,,,,-0.6,-0.17,0,0,0,0,,,,,0,37,37,37,,,,,,,,,,,,,,,,,,,,,,,,,,,,,,,,,,,,,,,,,,,,,,,,,,,,,,,,,,,,,,,,,,,,,,,,,,,,,,,,,,,,,,,,,,,,,,,,,,,,,,25.78554105758667,None,25.78554105758667,None,25.78554105758667,25.78554105758667,25.78554105758667,25.78554105758667,25.78554105758667,None,,001,2021_Jul_30_2206,untitled,2020.2.10,None,
,,,,,-0.6,-0.18,0,0,0,0,,,,,0,38,38,38,,,,,,,,,,,,,,,,,,,,,,,,,,,,,,,,,,,,,,,,,,,,,,,,,,,,,,,,,,,,,,,,,,,,,,,,,,,,,,,,,,,,,,,,,,,,,,,,,,,,,,25.87177300453186,None,25.87177300453186,None,25.87177300453186,25.87177300453186,25.87177300453186,25.87177300453186,25.87177300453186,None,,001,2021_Jul_30_2206,untitled,2020.2.10,None,
,,,,,-0.6,-0.19,0,0,0,0,,,,,0,39,39,39,,,,,,,,,,,,,,,,,,,,,,,,,,,,,,,,,,,,,,,,,,,,,,,,,,,,,,,,,,,,,,,,,,,,,,,,,,,,,,,,,,,,,,,,,,,,,,,,,,,,,,25.994603157043457,None,25.994603157043457,None,25.994603157043457,25.994603157043457,25.994603157043457,25.994603157043457,25.994603157043457,None,,001,2021_Jul_30_2206,untitled,2020.2.10,None,
,,,,,-0.6,-0.2,0,0,0,0,,,,,0,40,40,40,,,,,,,,,,,,,,,,,,,,,,,,,,,,,,,,,,,,,,,,,,,,,,,,,,,,,,,,,,,,,,,,,,,,,,,,,,,,,,,,,,,,,,,,,,,,,,,,,,,,,,26.078442096710205,None,26.078442096710205,None,26.078442096710205,26.078442096710205,26.078442096710205,26.078442096710205,26.078442096710205,None,,001,2021_Jul_30_2206,untitled,2020.2.10,None,
