rewardval1,rewardval2,rewardval3,rewardval4,rewardval5,tree1_n,tree2_p,reward1.thisRepN,reward1.thisTrialN,reward1.thisN,reward1.thisIndex,pos1.thisRepN,pos1.thisTrialN,pos1.thisN,pos1.thisIndex,reward2.thisRepN,reward2.thisTrialN,reward2.thisN,reward2.thisIndex,introtext.started,introtext.stopped,tree1_18.started,tree1_18.stopped,tree2_18.started,tree2_18.stopped,tree3_18.started,tree3_18.stopped,tree4_18.started,tree4_18.stopped,circle1.started,circle1.stopped,wait_7.started,wait_7.stopped,forward_11.started,forward_11.stopped,squaree_3.started,squaree_3.stopped,mouse_3.x,mouse_3.y,mouse_3.leftButton,mouse_3.midButton,mouse_3.rightButton,mouse_3.clicked_name,mouse_3.started,mouse_3.stopped,tree1_12.started,tree1_12.stopped,tree2_12.started,tree2_12.stopped,tree3_12.started,tree3_12.stopped,tree4_12.started,tree4_12.stopped,circle2.started,circle2.stopped,wait_3.started,wait_3.stopped,forward_2.started,forward_2.stopped,squaree_2.started,squaree_2.stopped,gcircle.started,gcircle.stopped,tree1_4.started,tree1_4.stopped,tree2_4.started,tree2_4.stopped,tree3_4.started,tree3_4.stopped,tree4_4.started,tree4_4.stopped,circle3.started,circle3.stopped,reward_2.started,reward_2.stopped,resp.started,resp.stopped,forward.started,forward.stopped,key_resp.keys,key_resp.started,key_resp.stopped,sol.x,sol.y,sol.leftButton,sol.midButton,sol.rightButton,sol.clicked_name,sol.started,sol.stopped,gcircle_2.started,gcircle_2.stopped,skipsq.started,skipsq.stopped,tree1_19.started,tree1_19.stopped,tree2_19.started,tree2_19.stopped,tree3_19.started,tree3_19.stopped,tree4_19.started,tree4_19.stopped,circle4.started,circle4.stopped,wait_8.started,wait_8.stopped,forward_12.started,forward_12.stopped,squaree_4.started,squaree_4.stopped,gcircle_3.started,gcircle_3.stopped,reward_7.started,reward_7.stopped,gcircle_4.started,gcircle_4.stopped,tree1_6.started,tree1_6.stopped,tree2_6.started,tree2_6.stopped,tree3_6.started,tree3_6.stopped,tree4_6.started,tree4_6.stopped,circle5.started,circle5.stopped,tree1_20.started,tree1_20.stopped,tree2_20.started,tree2_20.stopped,tree3_20.started,tree3_20.stopped,tree4_20.started,tree4_20.stopped,circle.started,circle.stopped,forward_13.started,forward_13.stopped,mouse_4.x,mouse_4.y,mouse_4.leftButton,mouse_4.midButton,mouse_4.rightButton,mouse_4.clicked_name,mouse_4.started,mouse_4.stopped,tree1_13.started,tree1_13.stopped,tree2_13.started,tree2_13.stopped,tree3_13.started,tree3_13.stopped,tree4_13.started,tree4_13.stopped,circle6.started,circle6.stopped,wait.started,wait.stopped,forward_3.started,forward_3.stopped,tree1_5.started,tree1_5.stopped,tree2_5.started,tree2_5.stopped,tree3_5.started,tree3_5.stopped,tree4_5.started,tree4_5.stopped,circle_5.started,circle_5.stopped,reward_3.started,reward_3.stopped,forward_7.started,forward_7.stopped,sol_2.x,sol_2.y,sol_2.leftButton,sol_2.midButton,sol_2.rightButton,sol_2.clicked_name,sol_2.started,sol_2.stopped,skipsq_2.started,skipsq_2.stopped,gcircle_5.started,gcircle_5.stopped,tree1_21.started,tree1_21.stopped,tree2_21.started,tree2_21.stopped,tree3_21.started,tree3_21.stopped,tree4_21.started,tree4_21.stopped,circle_6.started,circle_6.stopped,reward_9.started,reward_9.stopped,forward_15.started,forward_15.stopped,participant,session,date,expName,psychopyVersion,frameRate,
7.5,7.3,7.6,7.1,7.4,,,0,0,0,0,,,,,,,,,9.60548996925354,None,10.656003952026367,None,10.656003952026367,10.656003952026367,10.656003952026367,10.656003952026367,10.656003952026367,10.656003952026367,10.656003952026367,None,10.656003952026367,10.656003952026367,10.656003952026367,None,10.656003952026367,10.656003952026367,0.010185185185185186,-0.19444444444444445,1,0,0,circle1,0.0045812129974365234,None,12.585537910461426,None,12.585537910461426,12.585537910461426,12.585537910461426,12.585537910461426,12.585537910461426,12.585537910461426,12.585537910461426,None,12.585537910461426,12.585537910461426,12.585537910461426,None,12.585537910461426,12.585537910461426,12.585537910461426,12.585537910461426,13.61911392211914,None,13.61911392211914,13.61911392211914,13.61911392211914,13.61911392211914,13.61911392211914,13.61911392211914,13.61911392211914,None,13.61911392211914,13.61911392211914,0.005363941192626953,0.005363941192626953,13.61911392211914,None,None,13.61911392211914,13.61911392211914,-0.5268518518518519,-0.18425925925925926,1,0,0,tree1_4,0.005363941192626953,None,13.61911392211914,None,13.61911392211914,None,15.325562953948975,None,15.325562953948975,15.325562953948975,15.325562953948975,15.325562953948975,15.325562953948975,15.325562953948975,15.325562953948975,None,15.325562953948975,15.325562953948975,15.325562953948975,None,15.325562953948975,15.325562953948975,15.325562953948975,15.325562953948975,15.325562953948975,None,15.325562953948975,None,,,,,,,,,,,,,,,,,,,,,,,,,,,,,,,,,,,,,,,,,,,,,,,,,,,,,,,,,,,,,,,,,,,,,,,,,,,,,,,,,,,,,,001,2021_Jul_27_1913,untitled,2020.2.10,60.53268946845068,
7.1,6.9,7.1,6.6,6.8,,,0,1,1,1,,,,,,,,,,,16.335760831832886,None,16.335760831832886,16.335760831832886,16.335760831832886,16.335760831832886,16.335760831832886,16.335760831832886,16.335760831832886,None,16.335760831832886,16.335760831832886,16.335760831832886,None,16.335760831832886,16.335760831832886,0.009259259259259259,-0.1962962962962963,1,0,0,circle1,0.011431694030761719,None,16.69679284095764,None,16.69679284095764,16.69679284095764,16.69679284095764,16.69679284095764,16.69679284095764,16.69679284095764,16.69679284095764,None,16.69679284095764,16.69679284095764,16.69679284095764,None,16.69679284095764,16.69679284095764,16.69679284095764,16.69679284095764,17.712462902069092,None,17.712462902069092,17.712462902069092,17.712462902069092,17.712462902069092,17.712462902069092,17.712462902069092,17.712462902069092,None,17.712462902069092,17.712462902069092,0.0093536376953125,0.0093536376953125,17.712462902069092,None,None,17.712462902069092,17.712462902069092,0.4666666666666667,-0.20555555555555555,1,0,0,skipsq,0.0093536376953125,None,17.712462902069092,None,17.712462902069092,None,19.025977849960327,None,19.025977849960327,19.025977849960327,19.025977849960327,19.025977849960327,19.025977849960327,19.025977849960327,19.025977849960327,None,19.025977849960327,19.025977849960327,19.025977849960327,None,19.025977849960327,19.025977849960327,19.025977849960327,19.025977849960327,19.025977849960327,None,19.025977849960327,None,,,,,,,,,,,,,,,,,,,,,,,,,,,,,,,,,,,,,,,,,,,,,,,,,,,,,,,,,,,,,,,,,,,,,,,,,,,,,,,,,,,,,,001,2021_Jul_27_1913,untitled,2020.2.10,60.53268946845068,
,,,,,-0.2,-0.6,,,,,0,0,0,0,,,,,,,,,,,,,,,,,,,,,,,,,,,,,,,,,,,,,,,,,,,,,,,,,,,,,,,,,,,,,,,,,,,,,,,,,,,,,,,,,,,,,,,,,,,,,,,,,,,,,,20.0966739654541,None,20.0966739654541,None,20.0966739654541,20.0966739654541,20.0966739654541,20.0966739654541,20.0966739654541,None,,,,,,,,,,,,,,,,,,,,,,,,,,,,,,,,,,,,,,,,,,,,,,,,,,,,,,,,,,,,,,,,,,,,,,,,,,,,001,2021_Jul_27_1913,untitled,2020.2.10,60.53268946845068,
,,,,,-0.21,-0.6,,,,,0,1,1,1,,,,,,,,,,,,,,,,,,,,,,,,,,,,,,,,,,,,,,,,,,,,,,,,,,,,,,,,,,,,,,,,,,,,,,,,,,,,,,,,,,,,,,,,,,,,,,,,,,,,,,20.142634868621826,None,20.142634868621826,None,20.142634868621826,20.142634868621826,20.142634868621826,20.142634868621826,20.142634868621826,None,,,,,,,,,,,,,,,,,,,,,,,,,,,,,,,,,,,,,,,,,,,,,,,,,,,,,,,,,,,,,,,,,,,,,,,,,,,,001,2021_Jul_27_1913,untitled,2020.2.10,60.53268946845068,
,,,,,-0.22,-0.6,,,,,0,2,2,2,,,,,,,,,,,,,,,,,,,,,,,,,,,,,,,,,,,,,,,,,,,,,,,,,,,,,,,,,,,,,,,,,,,,,,,,,,,,,,,,,,,,,,,,,,,,,,,,,,,,,,20.273900985717773,None,20.273900985717773,None,20.273900985717773,20.273900985717773,20.273900985717773,20.273900985717773,20.273900985717773,None,,,,,,,,,,,,,,,,,,,,,,,,,,,,,,,,,,,,,,,,,,,,,,,,,,,,,,,,,,,,,,,,,,,,,,,,,,,,001,2021_Jul_27_1913,untitled,2020.2.10,60.53268946845068,
,,,,,-0.23,-0.6,,,,,0,3,3,3,,,,,,,,,,,,,,,,,,,,,,,,,,,,,,,,,,,,,,,,,,,,,,,,,,,,,,,,,,,,,,,,,,,,,,,,,,,,,,,,,,,,,,,,,,,,,,,,,,,,,,20.36353588104248,None,20.36353588104248,None,20.36353588104248,20.36353588104248,20.36353588104248,20.36353588104248,20.36353588104248,None,,,,,,,,,,,,,,,,,,,,,,,,,,,,,,,,,,,,,,,,,,,,,,,,,,,,,,,,,,,,,,,,,,,,,,,,,,,,001,2021_Jul_27_1913,untitled,2020.2.10,60.53268946845068,
,,,,,-0.24,-0.6,,,,,0,4,4,4,,,,,,,,,,,,,,,,,,,,,,,,,,,,,,,,,,,,,,,,,,,,,,,,,,,,,,,,,,,,,,,,,,,,,,,,,,,,,,,,,,,,,,,,,,,,,,,,,,,,,,20.451647996902466,None,20.451647996902466,None,20.451647996902466,20.451647996902466,20.451647996902466,20.451647996902466,20.451647996902466,None,,,,,,,,,,,,,,,,,,,,,,,,,,,,,,,,,,,,,,,,,,,,,,,,,,,,,,,,,,,,,,,,,,,,,,,,,,,,001,2021_Jul_27_1913,untitled,2020.2.10,60.53268946845068,
,,,,,-0.25,-0.6,,,,,0,5,5,5,,,,,,,,,,,,,,,,,,,,,,,,,,,,,,,,,,,,,,,,,,,,,,,,,,,,,,,,,,,,,,,,,,,,,,,,,,,,,,,,,,,,,,,,,,,,,,,,,,,,,,20.540812969207764,None,20.540812969207764,None,20.540812969207764,20.540812969207764,20.540812969207764,20.540812969207764,20.540812969207764,None,,,,,,,,,,,,,,,,,,,,,,,,,,,,,,,,,,,,,,,,,,,,,,,,,,,,,,,,,,,,,,,,,,,,,,,,,,,,001,2021_Jul_27_1913,untitled,2020.2.10,60.53268946845068,
,,,,,-0.26,-0.6,,,,,0,6,6,6,,,,,,,,,,,,,,,,,,,,,,,,,,,,,,,,,,,,,,,,,,,,,,,,,,,,,,,,,,,,,,,,,,,,,,,,,,,,,,,,,,,,,,,,,,,,,,,,,,,,,,20.674324989318848,None,20.674324989318848,None,20.674324989318848,20.674324989318848,20.674324989318848,20.674324989318848,20.674324989318848,None,,,,,,,,,,,,,,,,,,,,,,,,,,,,,,,,,,,,,,,,,,,,,,,,,,,,,,,,,,,,,,,,,,,,,,,,,,,,001,2021_Jul_27_1913,untitled,2020.2.10,60.53268946845068,
,,,,,-0.27,-0.6,,,,,0,7,7,7,,,,,,,,,,,,,,,,,,,,,,,,,,,,,,,,,,,,,,,,,,,,,,,,,,,,,,,,,,,,,,,,,,,,,,,,,,,,,,,,,,,,,,,,,,,,,,,,,,,,,,20.75632095336914,None,20.75632095336914,None,20.75632095336914,20.75632095336914,20.75632095336914,20.75632095336914,20.75632095336914,None,,,,,,,,,,,,,,,,,,,,,,,,,,,,,,,,,,,,,,,,,,,,,,,,,,,,,,,,,,,,,,,,,,,,,,,,,,,,001,2021_Jul_27_1913,untitled,2020.2.10,60.53268946845068,
,,,,,-0.28,-0.6,,,,,0,8,8,8,,,,,,,,,,,,,,,,,,,,,,,,,,,,,,,,,,,,,,,,,,,,,,,,,,,,,,,,,,,,,,,,,,,,,,,,,,,,,,,,,,,,,,,,,,,,,,,,,,,,,,20.83704686164856,None,20.83704686164856,None,20.83704686164856,20.83704686164856,20.83704686164856,20.83704686164856,20.83704686164856,None,,,,,,,,,,,,,,,,,,,,,,,,,,,,,,,,,,,,,,,,,,,,,,,,,,,,,,,,,,,,,,,,,,,,,,,,,,,,001,2021_Jul_27_1913,untitled,2020.2.10,60.53268946845068,
,,,,,-0.29,-0.6,,,,,0,9,9,9,,,,,,,,,,,,,,,,,,,,,,,,,,,,,,,,,,,,,,,,,,,,,,,,,,,,,,,,,,,,,,,,,,,,,,,,,,,,,,,,,,,,,,,,,,,,,,,,,,,,,,20.965852975845337,None,20.965852975845337,None,20.965852975845337,20.965852975845337,20.965852975845337,20.965852975845337,20.965852975845337,None,,,,,,,,,,,,,,,,,,,,,,,,,,,,,,,,,,,,,,,,,,,,,,,,,,,,,,,,,,,,,,,,,,,,,,,,,,,,001,2021_Jul_27_1913,untitled,2020.2.10,60.53268946845068,
,,,,,-0.3,-0.6,,,,,0,10,10,10,,,,,,,,,,,,,,,,,,,,,,,,,,,,,,,,,,,,,,,,,,,,,,,,,,,,,,,,,,,,,,,,,,,,,,,,,,,,,,,,,,,,,,,,,,,,,,,,,,,,,,21.057605981826782,None,21.057605981826782,None,21.057605981826782,21.057605981826782,21.057605981826782,21.057605981826782,21.057605981826782,None,,,,,,,,,,,,,,,,,,,,,,,,,,,,,,,,,,,,,,,,,,,,,,,,,,,,,,,,,,,,,,,,,,,,,,,,,,,,001,2021_Jul_27_1913,untitled,2020.2.10,60.53268946845068,
,,,,,-0.31,-0.6,,,,,0,11,11,11,,,,,,,,,,,,,,,,,,,,,,,,,,,,,,,,,,,,,,,,,,,,,,,,,,,,,,,,,,,,,,,,,,,,,,,,,,,,,,,,,,,,,,,,,,,,,,,,,,,,,,21.139648914337158,None,21.139648914337158,None,21.139648914337158,21.139648914337158,21.139648914337158,21.139648914337158,21.139648914337158,None,,,,,,,,,,,,,,,,,,,,,,,,,,,,,,,,,,,,,,,,,,,,,,,,,,,,,,,,,,,,,,,,,,,,,,,,,,,,001,2021_Jul_27_1913,untitled,2020.2.10,60.53268946845068,
,,,,,-0.32,-0.6,,,,,0,12,12,12,,,,,,,,,,,,,,,,,,,,,,,,,,,,,,,,,,,,,,,,,,,,,,,,,,,,,,,,,,,,,,,,,,,,,,,,,,,,,,,,,,,,,,,,,,,,,,,,,,,,,,21.257449865341187,None,21.257449865341187,None,21.257449865341187,21.257449865341187,21.257449865341187,21.257449865341187,21.257449865341187,None,,,,,,,,,,,,,,,,,,,,,,,,,,,,,,,,,,,,,,,,,,,,,,,,,,,,,,,,,,,,,,,,,,,,,,,,,,,,001,2021_Jul_27_1913,untitled,2020.2.10,60.53268946845068,
,,,,,-0.33,-0.6,,,,,0,13,13,13,,,,,,,,,,,,,,,,,,,,,,,,,,,,,,,,,,,,,,,,,,,,,,,,,,,,,,,,,,,,,,,,,,,,,,,,,,,,,,,,,,,,,,,,,,,,,,,,,,,,,,21.33693289756775,None,21.33693289756775,None,21.33693289756775,21.33693289756775,21.33693289756775,21.33693289756775,21.33693289756775,None,,,,,,,,,,,,,,,,,,,,,,,,,,,,,,,,,,,,,,,,,,,,,,,,,,,,,,,,,,,,,,,,,,,,,,,,,,,,001,2021_Jul_27_1913,untitled,2020.2.10,60.53268946845068,
,,,,,-0.34,-0.6,,,,,0,14,14,14,,,,,,,,,,,,,,,,,,,,,,,,,,,,,,,,,,,,,,,,,,,,,,,,,,,,,,,,,,,,,,,,,,,,,,,,,,,,,,,,,,,,,,,,,,,,,,,,,,,,,,21.468093872070312,None,21.468093872070312,None,21.468093872070312,21.468093872070312,21.468093872070312,21.468093872070312,21.468093872070312,None,,,,,,,,,,,,,,,,,,,,,,,,,,,,,,,,,,,,,,,,,,,,,,,,,,,,,,,,,,,,,,,,,,,,,,,,,,,,001,2021_Jul_27_1913,untitled,2020.2.10,60.53268946845068,
,,,,,-0.35,-0.6,,,,,0,15,15,15,,,,,,,,,,,,,,,,,,,,,,,,,,,,,,,,,,,,,,,,,,,,,,,,,,,,,,,,,,,,,,,,,,,,,,,,,,,,,,,,,,,,,,,,,,,,,,,,,,,,,,21.558072805404663,None,21.558072805404663,None,21.558072805404663,21.558072805404663,21.558072805404663,21.558072805404663,21.558072805404663,None,,,,,,,,,,,,,,,,,,,,,,,,,,,,,,,,,,,,,,,,,,,,,,,,,,,,,,,,,,,,,,,,,,,,,,,,,,,,001,2021_Jul_27_1913,untitled,2020.2.10,60.53268946845068,
,,,,,-0.36,-0.6,,,,,0,16,16,16,,,,,,,,,,,,,,,,,,,,,,,,,,,,,,,,,,,,,,,,,,,,,,,,,,,,,,,,,,,,,,,,,,,,,,,,,,,,,,,,,,,,,,,,,,,,,,,,,,,,,,21.64306879043579,None,21.64306879043579,None,21.64306879043579,21.64306879043579,21.64306879043579,21.64306879043579,21.64306879043579,None,,,,,,,,,,,,,,,,,,,,,,,,,,,,,,,,,,,,,,,,,,,,,,,,,,,,,,,,,,,,,,,,,,,,,,,,,,,,001,2021_Jul_27_1913,untitled,2020.2.10,60.53268946845068,
,,,,,-0.37,-0.6,,,,,0,17,17,17,,,,,,,,,,,,,,,,,,,,,,,,,,,,,,,,,,,,,,,,,,,,,,,,,,,,,,,,,,,,,,,,,,,,,,,,,,,,,,,,,,,,,,,,,,,,,,,,,,,,,,21.778748989105225,None,21.778748989105225,None,21.778748989105225,21.778748989105225,21.778748989105225,21.778748989105225,21.778748989105225,None,,,,,,,,,,,,,,,,,,,,,,,,,,,,,,,,,,,,,,,,,,,,,,,,,,,,,,,,,,,,,,,,,,,,,,,,,,,,001,2021_Jul_27_1913,untitled,2020.2.10,60.53268946845068,
,,,,,-0.38,-0.6,,,,,0,18,18,18,,,,,,,,,,,,,,,,,,,,,,,,,,,,,,,,,,,,,,,,,,,,,,,,,,,,,,,,,,,,,,,,,,,,,,,,,,,,,,,,,,,,,,,,,,,,,,,,,,,,,,21.863722801208496,None,21.863722801208496,None,21.863722801208496,21.863722801208496,21.863722801208496,21.863722801208496,21.863722801208496,None,,,,,,,,,,,,,,,,,,,,,,,,,,,,,,,,,,,,,,,,,,,,,,,,,,,,,,,,,,,,,,,,,,,,,,,,,,,,001,2021_Jul_27_1913,untitled,2020.2.10,60.53268946845068,
,,,,,-0.39,-0.6,,,,,0,19,19,19,,,,,,,,,,,,,,,,,,,,,,,,,,,,,,,,,,,,,,,,,,,,,,,,,,,,,,,,,,,,,,,,,,,,,,,,,,,,,,,,,,,,,,,,,,,,,,,,,,,,,,21.95532989501953,None,21.95532989501953,None,21.95532989501953,21.95532989501953,21.95532989501953,21.95532989501953,21.95532989501953,None,,,,,,,,,,,,,,,,,,,,,,,,,,,,,,,,,,,,,,,,,,,,,,,,,,,,,,,,,,,,,,,,,,,,,,,,,,,,001,2021_Jul_27_1913,untitled,2020.2.10,60.53268946845068,
,,,,,-0.4,0.0,,,,,0,20,20,20,,,,,,,,,,,,,,,,,,,,,,,,,,,,,,,,,,,,,,,,,,,,,,,,,,,,,,,,,,,,,,,,,,,,,,,,,,,,,,,,,,,,,,,,,,,,,,,,,,,,,,22.0497407913208,None,22.0497407913208,None,22.0497407913208,22.0497407913208,22.0497407913208,22.0497407913208,22.0497407913208,None,,,,,,,,,,,,,,,,,,,,,,,,,,,,,,,,,,,,,,,,,,,,,,,,,,,,,,,,,,,,,,,,,,,,,,,,,,,,001,2021_Jul_27_1913,untitled,2020.2.10,60.53268946845068,
,,,,,-0.6,-0.01,,,,,0,21,21,21,,,,,,,,,,,,,,,,,,,,,,,,,,,,,,,,,,,,,,,,,,,,,,,,,,,,,,,,,,,,,,,,,,,,,,,,,,,,,,,,,,,,,,,,,,,,,,,,,,,,,,22.141100883483887,None,22.141100883483887,None,22.141100883483887,22.141100883483887,22.141100883483887,22.141100883483887,22.141100883483887,None,,,,,,,,,,,,,,,,,,,,,,,,,,,,,,,,,,,,,,,,,,,,,,,,,,,,,,,,,,,,,,,,,,,,,,,,,,,,001,2021_Jul_27_1913,untitled,2020.2.10,60.53268946845068,
,,,,,-0.6,-0.02,,,,,0,22,22,22,,,,,,,,,,,,,,,,,,,,,,,,,,,,,,,,,,,,,,,,,,,,,,,,,,,,,,,,,,,,,,,,,,,,,,,,,,,,,,,,,,,,,,,,,,,,,,,,,,,,,,22.274962902069092,None,22.274962902069092,None,22.274962902069092,22.274962902069092,22.274962902069092,22.274962902069092,22.274962902069092,None,,,,,,,,,,,,,,,,,,,,,,,,,,,,,,,,,,,,,,,,,,,,,,,,,,,,,,,,,,,,,,,,,,,,,,,,,,,,001,2021_Jul_27_1913,untitled,2020.2.10,60.53268946845068,
,,,,,-0.6,-0.03,,,,,0,23,23,23,,,,,,,,,,,,,,,,,,,,,,,,,,,,,,,,,,,,,,,,,,,,,,,,,,,,,,,,,,,,,,,,,,,,,,,,,,,,,,,,,,,,,,,,,,,,,,,,,,,,,,22.366596937179565,None,22.366596937179565,None,22.366596937179565,22.366596937179565,22.366596937179565,22.366596937179565,22.366596937179565,None,,,,,,,,,,,,,,,,,,,,,,,,,,,,,,,,,,,,,,,,,,,,,,,,,,,,,,,,,,,,,,,,,,,,,,,,,,,,001,2021_Jul_27_1913,untitled,2020.2.10,60.53268946845068,
,,,,,-0.6,-0.04,,,,,0,24,24,24,,,,,,,,,,,,,,,,,,,,,,,,,,,,,,,,,,,,,,,,,,,,,,,,,,,,,,,,,,,,,,,,,,,,,,,,,,,,,,,,,,,,,,,,,,,,,,,,,,,,,,22.452820777893066,None,22.452820777893066,None,22.452820777893066,22.452820777893066,22.452820777893066,22.452820777893066,22.452820777893066,None,,,,,,,,,,,,,,,,,,,,,,,,,,,,,,,,,,,,,,,,,,,,,,,,,,,,,,,,,,,,,,,,,,,,,,,,,,,,001,2021_Jul_27_1913,untitled,2020.2.10,60.53268946845068,
,,,,,-0.6,-0.05,,,,,0,25,25,25,,,,,,,,,,,,,,,,,,,,,,,,,,,,,,,,,,,,,,,,,,,,,,,,,,,,,,,,,,,,,,,,,,,,,,,,,,,,,,,,,,,,,,,,,,,,,,,,,,,,,,22.538365840911865,None,22.538365840911865,None,22.538365840911865,22.538365840911865,22.538365840911865,22.538365840911865,22.538365840911865,None,,,,,,,,,,,,,,,,,,,,,,,,,,,,,,,,,,,,,,,,,,,,,,,,,,,,,,,,,,,,,,,,,,,,,,,,,,,,001,2021_Jul_27_1913,untitled,2020.2.10,60.53268946845068,
,,,,,-0.6,-0.06,,,,,0,26,26,26,,,,,,,,,,,,,,,,,,,,,,,,,,,,,,,,,,,,,,,,,,,,,,,,,,,,,,,,,,,,,,,,,,,,,,,,,,,,,,,,,,,,,,,,,,,,,,,,,,,,,,22.666971921920776,None,22.666971921920776,None,22.666971921920776,22.666971921920776,22.666971921920776,22.666971921920776,22.666971921920776,None,,,,,,,,,,,,,,,,,,,,,,,,,,,,,,,,,,,,,,,,,,,,,,,,,,,,,,,,,,,,,,,,,,,,,,,,,,,,001,2021_Jul_27_1913,untitled,2020.2.10,60.53268946845068,
,,,,,-0.6,-0.07,,,,,0,27,27,27,,,,,,,,,,,,,,,,,,,,,,,,,,,,,,,,,,,,,,,,,,,,,,,,,,,,,,,,,,,,,,,,,,,,,,,,,,,,,,,,,,,,,,,,,,,,,,,,,,,,,,22.748514890670776,None,22.748514890670776,None,22.748514890670776,22.748514890670776,22.748514890670776,22.748514890670776,22.748514890670776,None,,,,,,,,,,,,,,,,,,,,,,,,,,,,,,,,,,,,,,,,,,,,,,,,,,,,,,,,,,,,,,,,,,,,,,,,,,,,001,2021_Jul_27_1913,untitled,2020.2.10,60.53268946845068,
,,,,,-0.6,-0.08,,,,,0,28,28,28,,,,,,,,,,,,,,,,,,,,,,,,,,,,,,,,,,,,,,,,,,,,,,,,,,,,,,,,,,,,,,,,,,,,,,,,,,,,,,,,,,,,,,,,,,,,,,,,,,,,,,22.83194088935852,None,22.83194088935852,None,22.83194088935852,22.83194088935852,22.83194088935852,22.83194088935852,22.83194088935852,None,,,,,,,,,,,,,,,,,,,,,,,,,,,,,,,,,,,,,,,,,,,,,,,,,,,,,,,,,,,,,,,,,,,,,,,,,,,,001,2021_Jul_27_1913,untitled,2020.2.10,60.53268946845068,
,,,,,-0.6,-0.09,,,,,0,29,29,29,,,,,,,,,,,,,,,,,,,,,,,,,,,,,,,,,,,,,,,,,,,,,,,,,,,,,,,,,,,,,,,,,,,,,,,,,,,,,,,,,,,,,,,,,,,,,,,,,,,,,,22.955180883407593,None,22.955180883407593,None,22.955180883407593,22.955180883407593,22.955180883407593,22.955180883407593,22.955180883407593,None,,,,,,,,,,,,,,,,,,,,,,,,,,,,,,,,,,,,,,,,,,,,,,,,,,,,,,,,,,,,,,,,,,,,,,,,,,,,001,2021_Jul_27_1913,untitled,2020.2.10,60.53268946845068,
,,,,,-0.6,-0.1,,,,,0,30,30,30,,,,,,,,,,,,,,,,,,,,,,,,,,,,,,,,,,,,,,,,,,,,,,,,,,,,,,,,,,,,,,,,,,,,,,,,,,,,,,,,,,,,,,,,,,,,,,,,,,,,,,23.037267923355103,None,23.037267923355103,None,23.037267923355103,23.037267923355103,23.037267923355103,23.037267923355103,23.037267923355103,None,,,,,,,,,,,,,,,,,,,,,,,,,,,,,,,,,,,,,,,,,,,,,,,,,,,,,,,,,,,,,,,,,,,,,,,,,,,,001,2021_Jul_27_1913,untitled,2020.2.10,60.53268946845068,
,,,,,-0.6,-0.11,,,,,0,31,31,31,,,,,,,,,,,,,,,,,,,,,,,,,,,,,,,,,,,,,,,,,,,,,,,,,,,,,,,,,,,,,,,,,,,,,,,,,,,,,,,,,,,,,,,,,,,,,,,,,,,,,,23.159246921539307,None,23.159246921539307,None,23.159246921539307,23.159246921539307,23.159246921539307,23.159246921539307,23.159246921539307,None,,,,,,,,,,,,,,,,,,,,,,,,,,,,,,,,,,,,,,,,,,,,,,,,,,,,,,,,,,,,,,,,,,,,,,,,,,,,001,2021_Jul_27_1913,untitled,2020.2.10,60.53268946845068,
,,,,,-0.6,-0.12,,,,,0,32,32,32,,,,,,,,,,,,,,,,,,,,,,,,,,,,,,,,,,,,,,,,,,,,,,,,,,,,,,,,,,,,,,,,,,,,,,,,,,,,,,,,,,,,,,,,,,,,,,,,,,,,,,23.240073919296265,None,23.240073919296265,None,23.240073919296265,23.240073919296265,23.240073919296265,23.240073919296265,23.240073919296265,None,,,,,,,,,,,,,,,,,,,,,,,,,,,,,,,,,,,,,,,,,,,,,,,,,,,,,,,,,,,,,,,,,,,,,,,,,,,,001,2021_Jul_27_1913,untitled,2020.2.10,60.53268946845068,
,,,,,-0.6,-0.13,,,,,0,33,33,33,,,,,,,,,,,,,,,,,,,,,,,,,,,,,,,,,,,,,,,,,,,,,,,,,,,,,,,,,,,,,,,,,,,,,,,,,,,,,,,,,,,,,,,,,,,,,,,,,,,,,,23.358017921447754,None,23.358017921447754,None,23.358017921447754,23.358017921447754,23.358017921447754,23.358017921447754,23.358017921447754,None,,,,,,,,,,,,,,,,,,,,,,,,,,,,,,,,,,,,,,,,,,,,,,,,,,,,,,,,,,,,,,,,,,,,,,,,,,,,001,2021_Jul_27_1913,untitled,2020.2.10,60.53268946845068,
,,,,,-0.6,-0.14,,,,,0,34,34,34,,,,,,,,,,,,,,,,,,,,,,,,,,,,,,,,,,,,,,,,,,,,,,,,,,,,,,,,,,,,,,,,,,,,,,,,,,,,,,,,,,,,,,,,,,,,,,,,,,,,,,23.437358856201172,None,23.437358856201172,None,23.437358856201172,23.437358856201172,23.437358856201172,23.437358856201172,23.437358856201172,None,,,,,,,,,,,,,,,,,,,,,,,,,,,,,,,,,,,,,,,,,,,,,,,,,,,,,,,,,,,,,,,,,,,,,,,,,,,,001,2021_Jul_27_1913,untitled,2020.2.10,60.53268946845068,
,,,,,-0.6,-0.15,,,,,0,35,35,35,,,,,,,,,,,,,,,,,,,,,,,,,,,,,,,,,,,,,,,,,,,,,,,,,,,,,,,,,,,,,,,,,,,,,,,,,,,,,,,,,,,,,,,,,,,,,,,,,,,,,,23.56579899787903,None,23.56579899787903,None,23.56579899787903,23.56579899787903,23.56579899787903,23.56579899787903,23.56579899787903,None,,,,,,,,,,,,,,,,,,,,,,,,,,,,,,,,,,,,,,,,,,,,,,,,,,,,,,,,,,,,,,,,,,,,,,,,,,,,001,2021_Jul_27_1913,untitled,2020.2.10,60.53268946845068,
,,,,,-0.6,-0.16,,,,,0,36,36,36,,,,,,,,,,,,,,,,,,,,,,,,,,,,,,,,,,,,,,,,,,,,,,,,,,,,,,,,,,,,,,,,,,,,,,,,,,,,,,,,,,,,,,,,,,,,,,,,,,,,,,23.65684485435486,None,23.65684485435486,None,23.65684485435486,23.65684485435486,23.65684485435486,23.65684485435486,23.65684485435486,None,,,,,,,,,,,,,,,,,,,,,,,,,,,,,,,,,,,,,,,,,,,,,,,,,,,,,,,,,,,,,,,,,,,,,,,,,,,,001,2021_Jul_27_1913,untitled,2020.2.10,60.53268946845068,
,,,,,-0.6,-0.17,,,,,0,37,37,37,,,,,,,,,,,,,,,,,,,,,,,,,,,,,,,,,,,,,,,,,,,,,,,,,,,,,,,,,,,,,,,,,,,,,,,,,,,,,,,,,,,,,,,,,,,,,,,,,,,,,,23.748469829559326,None,23.748469829559326,None,23.748469829559326,23.748469829559326,23.748469829559326,23.748469829559326,23.748469829559326,None,,,,,,,,,,,,,,,,,,,,,,,,,,,,,,,,,,,,,,,,,,,,,,,,,,,,,,,,,,,,,,,,,,,,,,,,,,,,001,2021_Jul_27_1913,untitled,2020.2.10,60.53268946845068,
,,,,,-0.6,-0.18,,,,,0,38,38,38,,,,,,,,,,,,,,,,,,,,,,,,,,,,,,,,,,,,,,,,,,,,,,,,,,,,,,,,,,,,,,,,,,,,,,,,,,,,,,,,,,,,,,,,,,,,,,,,,,,,,,23.837758779525757,None,23.837758779525757,None,23.837758779525757,23.837758779525757,23.837758779525757,23.837758779525757,23.837758779525757,None,,,,,,,,,,,,,,,,,,,,,,,,,,,,,,,,,,,,,,,,,,,,,,,,,,,,,,,,,,,,,,,,,,,,,,,,,,,,001,2021_Jul_27_1913,untitled,2020.2.10,60.53268946845068,
,,,,,-0.6,-0.19,,,,,0,39,39,39,,,,,,,,,,,,,,,,,,,,,,,,,,,,,,,,,,,,,,,,,,,,,,,,,,,,,,,,,,,,,,,,,,,,,,,,,,,,,,,,,,,,,,,,,,,,,,,,,,,,,,23.96568989753723,None,23.96568989753723,None,23.96568989753723,23.96568989753723,23.96568989753723,23.96568989753723,23.96568989753723,None,,,,,,,,,,,,,,,,,,,,,,,,,,,,,,,,,,,,,,,,,,,,,,,,,,,,,,,,,,,,,,,,,,,,,,,,,,,,001,2021_Jul_27_1913,untitled,2020.2.10,60.53268946845068,
,,,,,-0.6,-0.2,,,,,0,40,40,40,,,,,,,,,,,,,,,,,,,,,,,,,,,,,,,,,,,,,,,,,,,,,,,,,,,,,,,,,,,,,,,,,,,,,,,,,,,,,,,,,,,,,,,,,,,,,,,,,,,,,,24.05217981338501,None,24.05217981338501,None,24.05217981338501,24.05217981338501,24.05217981338501,24.05217981338501,24.05217981338501,None,,,,,,,,,,,,,,,,,,,,,,,,,,,,,,,,,,,,,,,,,,,,,,,,,,,,,,,,,,,,,,,,,,,,,,,,,,,,001,2021_Jul_27_1913,untitled,2020.2.10,60.53268946845068,
7.5,7.3,7.6,7.1,7.4,,,,,,,,,,,0,0,0,0,,,,,,,,,,,,,,,,,,,,,,,,,,,,,,,,,,,,,,,,,,,,,,,,,,,,,,,,,,,,,,,,,,,,,,,,,,,,,,,,,,,,,,,,,,,,,,,,,,,,,,,,,,,,24.217684984207153,24.217684984207153,24.217684984207153,None,24.217684984207153,24.217684984207153,24.217684984207153,24.217684984207153,24.217684984207153,None,24.217684984207153,None,0.003703703703703704,-0.1935185185185185,1,0,0,circle,0.015513896942138672,None,26.21766185760498,26.21766185760498,26.21766185760498,None,26.21766185760498,26.21766185760498,26.21766185760498,26.21766185760498,26.21766185760498,None,26.21766185760498,26.21766185760498,26.21766185760498,None,27.232945919036865,27.232945919036865,27.232945919036865,None,27.232945919036865,27.232945919036865,27.232945919036865,27.232945919036865,27.232945919036865,None,27.232945919036865,27.232945919036865,27.232945919036865,None,0.48518518518518516,-0.1814814814814815,1,0,0,tree2_5,0.0029337406158447266,None,27.232945919036865,None,27.232945919036865,None,29.250800848007202,29.250800848007202,29.250800848007202,None,29.250800848007202,29.250800848007202,29.250800848007202,29.250800848007202,29.250800848007202,None,29.250800848007202,None,29.250800848007202,None,,001,2021_Jul_27_1913,untitled,2020.2.10,60.53268946845068,
7.1,6.9,7.1,6.6,6.8,,,,,,,,,,,0,1,1,1,,,,,,,,,,,,,,,,,,,,,,,,,,,,,,,,,,,,,,,,,,,,,,,,,,,,,,,,,,,,,,,,,,,,,,,,,,,,,,,,,,,,,,,,,,,,,,,,,,,,,,,,,,,,30.27812385559082,30.27812385559082,30.27812385559082,None,30.27812385559082,30.27812385559082,30.27812385559082,30.27812385559082,30.27812385559082,None,30.27812385559082,None,0.019444444444444445,-0.19444444444444445,1,0,0,circle,0.01243281364440918,None,30.906331777572632,30.906331777572632,30.906331777572632,None,30.906331777572632,30.906331777572632,30.906331777572632,30.906331777572632,30.906331777572632,None,30.906331777572632,30.906331777572632,30.906331777572632,None,31.925606966018677,31.925606966018677,31.925606966018677,None,31.925606966018677,31.925606966018677,31.925606966018677,31.925606966018677,31.925606966018677,None,31.925606966018677,31.925606966018677,31.925606966018677,None,0.5324074074074074,-0.19074074074074074,1,0,0,tree2_5,0.004912853240966797,None,31.925606966018677,None,31.925606966018677,None,33.25073194503784,33.25073194503784,33.25073194503784,None,33.25073194503784,33.25073194503784,33.25073194503784,33.25073194503784,33.25073194503784,None,33.25073194503784,None,33.25073194503784,None,,001,2021_Jul_27_1913,untitled,2020.2.10,60.53268946845068,
6.2,6.2,6.8,6.1,6.1,,,,,,,,,,,0,2,2,2,,,,,,,,,,,,,,,,,,,,,,,,,,,,,,,,,,,,,,,,,,,,,,,,,,,,,,,,,,,,,,,,,,,,,,,,,,,,,,,,,,,,,,,,,,,,,,,,,,,,,,,,,,,,34.273714780807495,34.273714780807495,34.273714780807495,None,34.273714780807495,34.273714780807495,34.273714780807495,34.273714780807495,34.273714780807495,None,34.273714780807495,None,0.044444444444444446,-0.20277777777777778,1,0,0,circle,0.014397859573364258,None,34.73745799064636,34.73745799064636,34.73745799064636,None,34.73745799064636,34.73745799064636,34.73745799064636,34.73745799064636,34.73745799064636,None,34.73745799064636,34.73745799064636,34.73745799064636,None,35.757593870162964,35.757593870162964,35.757593870162964,None,35.757593870162964,35.757593870162964,35.757593870162964,35.757593870162964,35.757593870162964,None,35.757593870162964,35.757593870162964,35.757593870162964,None,-0.4962962962962963,-0.1962962962962963,1,0,0,skipsq_2,0.0063323974609375,None,35.757593870162964,None,35.757593870162964,None,36.93925595283508,36.93925595283508,36.93925595283508,None,36.93925595283508,36.93925595283508,36.93925595283508,36.93925595283508,36.93925595283508,None,36.93925595283508,None,36.93925595283508,None,,001,2021_Jul_27_1913,untitled,2020.2.10,60.53268946845068,
5.9,5.8,6.3,5.8,5.8,,,,,,,,,,,0,3,3,3,,,,,,,,,,,,,,,,,,,,,,,,,,,,,,,,,,,,,,,,,,,,,,,,,,,,,,,,,,,,,,,,,,,,,,,,,,,,,,,,,,,,,,,,,,,,,,,,,,,,,,,,,,,,37.95736885070801,37.95736885070801,37.95736885070801,None,37.95736885070801,37.95736885070801,37.95736885070801,37.95736885070801,37.95736885070801,None,37.95736885070801,None,-0.007407407407407408,-0.22962962962962963,1,0,0,circle,0.00823664665222168,None,44.40838885307312,44.40838885307312,44.40838885307312,None,44.40838885307312,44.40838885307312,44.40838885307312,44.40838885307312,44.40838885307312,None,44.40838885307312,44.40838885307312,44.40838885307312,None,45.44175887107849,45.44175887107849,45.44175887107849,None,45.44175887107849,45.44175887107849,45.44175887107849,45.44175887107849,45.44175887107849,None,45.44175887107849,45.44175887107849,45.44175887107849,None,-0.4787037037037037,-0.17407407407407408,1,0,0,skipsq_2,0.0045087337493896484,None,45.44175887107849,None,45.44175887107849,None,46.65348291397095,46.65348291397095,46.65348291397095,None,46.65348291397095,46.65348291397095,46.65348291397095,46.65348291397095,46.65348291397095,None,46.65348291397095,None,46.65348291397095,None,,001,2021_Jul_27_1913,untitled,2020.2.10,60.53268946845068,
,,,,,,,,,,,,,,,,,,,,,,,,,,,,,,,,,,,,,,,,,,,,,,,,,,,,,,,,,,,,,,,,,,,,,,,,,,,,,,,,,,,,,,,,,,,,,,,,,,,,,,,,,,,,,,,,,,,,,,,,,,,,,,47.677509784698486,47.677509784698486,47.677509784698486,None,47.677509784698486,47.677509784698486,47.677509784698486,47.677509784698486,47.677509784698486,None,47.677509784698486,None,-0.03148148148148148,-0.19907407407407407,1,0,0,circle,0.011608600616455078,None,49.58946776390076,49.58946776390076,49.58946776390076,None,49.58946776390076,49.58946776390076,49.58946776390076,49.58946776390076,49.58946776390076,None,49.58946776390076,49.58946776390076,49.58946776390076,None,50.61804485321045,50.61804485321045,50.61804485321045,None,50.61804485321045,50.61804485321045,50.61804485321045,50.61804485321045,50.61804485321045,None,50.61804485321045,50.61804485321045,50.61804485321045,None,-0.4444444444444444,-0.21388888888888888,1,0,0,skipsq_2,0.002493619918823242,None,50.61804485321045,None,50.61804485321045,None,,,,,,,,,,,,,,,,,,,,,
