rewardval1,rewardval2,rewardval3,rewardval4,rewardval5,tree1_n,tree2_p,time.thisRepN,time.thisTrialN,time.thisN,time.thisIndex,reward1.thisRepN,reward1.thisTrialN,reward1.thisN,reward1.thisIndex,pos1.thisRepN,pos1.thisTrialN,pos1.thisN,pos1.thisIndex,reward2.thisRepN,reward2.thisTrialN,reward2.thisN,reward2.thisIndex,introtext.started,introtext.stopped,tree1_18.started,tree1_18.stopped,tree2_18.started,tree2_18.stopped,tree3_18.started,tree3_18.stopped,tree4_18.started,tree4_18.stopped,circle1.started,circle1.stopped,wait_7.started,wait_7.stopped,forward_11.started,forward_11.stopped,squaree_3.started,squaree_3.stopped,mouse_3.x,mouse_3.y,mouse_3.leftButton,mouse_3.midButton,mouse_3.rightButton,mouse_3.clicked_name,mouse_3.started,mouse_3.stopped,tree1_12.started,tree1_12.stopped,tree2_12.started,tree2_12.stopped,tree3_12.started,tree3_12.stopped,tree4_12.started,tree4_12.stopped,circle2.started,circle2.stopped,wait_3.started,wait_3.stopped,forward_2.started,forward_2.stopped,squaree_2.started,squaree_2.stopped,gcircle.started,gcircle.stopped,tree1_4.started,tree1_4.stopped,tree2_4.started,tree2_4.stopped,tree3_4.started,tree3_4.stopped,tree4_4.started,tree4_4.stopped,circle3.started,circle3.stopped,reward_2.started,reward_2.stopped,resp.started,resp.stopped,forward.started,forward.stopped,key_resp.keys,key_resp.started,key_resp.stopped,sol.x,sol.y,sol.leftButton,sol.midButton,sol.rightButton,sol.clicked_name,sol.started,sol.stopped,gcircle_2.started,gcircle_2.stopped,skipsq.started,skipsq.stopped,tree1_19.started,tree1_19.stopped,tree2_19.started,tree2_19.stopped,tree3_19.started,tree3_19.stopped,tree4_19.started,tree4_19.stopped,circle4.started,circle4.stopped,wait_8.started,wait_8.stopped,forward_12.started,forward_12.stopped,squaree_4.started,squaree_4.stopped,gcircle_3.started,gcircle_3.stopped,reward_7.started,reward_7.stopped,gcircle_4.started,gcircle_4.stopped,tree1_6.started,tree1_6.stopped,tree2_6.started,tree2_6.stopped,tree3_6.started,tree3_6.stopped,tree4_6.started,tree4_6.stopped,circle5.started,circle5.stopped,tree1_20.started,tree1_20.stopped,tree2_20.started,tree2_20.stopped,tree3_20.started,tree3_20.stopped,tree4_20.started,tree4_20.stopped,circle.started,circle.stopped,forward_13.started,forward_13.stopped,mouse_4.x,mouse_4.y,mouse_4.leftButton,mouse_4.midButton,mouse_4.rightButton,mouse_4.started,mouse_4.stopped,tree1_13.started,tree1_13.stopped,tree2_13.started,tree2_13.stopped,tree3_13.started,tree3_13.stopped,tree4_13.started,tree4_13.stopped,circle6.started,circle6.stopped,wait.started,wait.stopped,forward_3.started,forward_3.stopped,tree1_5.started,tree1_5.stopped,tree2_5.started,tree2_5.stopped,tree3_5.started,tree3_5.stopped,tree4_5.started,tree4_5.stopped,circle_5.started,circle_5.stopped,reward_3.started,reward_3.stopped,forward_7.started,forward_7.stopped,sol_2.x,sol_2.y,sol_2.leftButton,sol_2.midButton,sol_2.rightButton,sol_2.clicked_name,sol_2.started,sol_2.stopped,skipsq_2.started,skipsq_2.stopped,gcircle_5.started,gcircle_5.stopped,tree1_21.started,tree1_21.stopped,tree2_21.started,tree2_21.stopped,tree3_21.started,tree3_21.stopped,tree4_21.started,tree4_21.stopped,circle_6.started,circle_6.stopped,reward_9.started,reward_9.stopped,forward_15.started,forward_15.stopped,mouse_4.clicked_name,participant,session,date,expName,psychopyVersion,frameRate,
7.5,7.3,7.6,7.1,7.4,,,0,0,0,0,0,0,0,0,,,,,,,,,5.466441869735718,None,6.543614864349365,None,6.543614864349365,6.543614864349365,6.543614864349365,6.543614864349365,6.543614864349365,6.543614864349365,6.543614864349365,None,6.543614864349365,6.543614864349365,6.543614864349365,None,6.543614864349365,6.543614864349365,-0.01574074074074074,-0.2037037037037037,1,0,0,circle1,0.002512216567993164,None,9.479521989822388,None,9.479521989822388,9.479521989822388,9.479521989822388,9.479521989822388,9.479521989822388,9.479521989822388,9.479521989822388,None,9.479521989822388,9.479521989822388,9.479521989822388,None,9.479521989822388,9.479521989822388,9.479521989822388,9.479521989822388,10.507736921310425,None,10.507736921310425,10.507736921310425,10.507736921310425,10.507736921310425,10.507736921310425,10.507736921310425,10.507736921310425,None,10.507736921310425,10.507736921310425,0.0007846355438232422,0.0007846355438232422,10.507736921310425,None,None,10.507736921310425,10.507736921310425,-0.4981481481481482,-0.18796296296296297,1,0,0,tree1_4,0.0007846355438232422,None,10.507736921310425,None,10.507736921310425,None,11.993521928787231,None,11.993521928787231,11.993521928787231,11.993521928787231,11.993521928787231,11.993521928787231,11.993521928787231,11.993521928787231,None,11.993521928787231,11.993521928787231,11.993521928787231,None,11.993521928787231,11.993521928787231,11.993521928787231,11.993521928787231,11.993521928787231,None,11.993521928787231,None,,,,,,,,,,,,,,,,,,,,,,,,,,,,,,,,,,,,,,,,,,,,,,,,,,,,,,,,,,,,,,,,,,,,,,,,,,,,,,,,,,,,,,001,2021_Jul_29_2334,untitled,2020.2.10,59.945604093270546,
7.1,6.9,7.1,6.6,6.8,,,0,0,0,0,0,1,1,1,,,,,,,,,,,13.021082878112793,None,13.021082878112793,13.021082878112793,13.021082878112793,13.021082878112793,13.021082878112793,13.021082878112793,13.021082878112793,None,13.021082878112793,13.021082878112793,13.021082878112793,None,13.021082878112793,13.021082878112793,-0.011111111111111112,-0.19444444444444445,1,0,0,circle1,0.013700723648071289,None,13.577955961227417,None,13.577955961227417,13.577955961227417,13.577955961227417,13.577955961227417,13.577955961227417,13.577955961227417,13.577955961227417,None,13.577955961227417,13.577955961227417,13.577955961227417,None,13.577955961227417,13.577955961227417,13.577955961227417,13.577955961227417,14.608500957489014,None,14.608500957489014,14.608500957489014,14.608500957489014,14.608500957489014,14.608500957489014,14.608500957489014,14.608500957489014,None,14.608500957489014,14.608500957489014,0.005618572235107422,0.005618572235107422,14.608500957489014,None,None,14.608500957489014,14.608500957489014,-0.4981481481481482,-0.1675925925925926,1,0,0,tree1_4,0.005618572235107422,None,14.608500957489014,None,14.608500957489014,None,15.946553945541382,None,15.946553945541382,15.946553945541382,15.946553945541382,15.946553945541382,15.946553945541382,15.946553945541382,15.946553945541382,None,15.946553945541382,15.946553945541382,15.946553945541382,None,15.946553945541382,15.946553945541382,15.946553945541382,15.946553945541382,15.946553945541382,None,15.946553945541382,None,,,,,,,,,,,,,,,,,,,,,,,,,,,,,,,,,,,,,,,,,,,,,,,,,,,,,,,,,,,,,,,,,,,,,,,,,,,,,,,,,,,,,,001,2021_Jul_29_2334,untitled,2020.2.10,59.945604093270546,
6.2,6.2,6.8,6.1,6.1,,,0,0,0,0,0,2,2,2,,,,,,,,,,,16.99165987968445,None,16.99165987968445,16.99165987968445,16.99165987968445,16.99165987968445,16.99165987968445,16.99165987968445,16.99165987968445,None,16.99165987968445,16.99165987968445,16.99165987968445,None,16.99165987968445,16.99165987968445,0.001851851851851852,-0.18611111111111112,1,0,0,circle1,0.006681680679321289,None,17.39668297767639,None,17.39668297767639,17.39668297767639,17.39668297767639,17.39668297767639,17.39668297767639,17.39668297767639,17.39668297767639,None,17.39668297767639,17.39668297767639,17.39668297767639,None,17.39668297767639,17.39668297767639,17.39668297767639,17.39668297767639,18.413452863693237,None,18.413452863693237,18.413452863693237,18.413452863693237,18.413452863693237,18.413452863693237,18.413452863693237,18.413452863693237,None,18.413452863693237,18.413452863693237,0.003960609436035156,0.003960609436035156,18.413452863693237,None,None,18.413452863693237,18.413452863693237,-0.5092592592592593,-0.1925925925925926,1,0,0,tree1_4,0.003960609436035156,None,18.413452863693237,None,18.413452863693237,None,19.670949935913086,None,19.670949935913086,19.670949935913086,19.670949935913086,19.670949935913086,19.670949935913086,19.670949935913086,19.670949935913086,None,19.670949935913086,19.670949935913086,19.670949935913086,None,19.670949935913086,19.670949935913086,19.670949935913086,19.670949935913086,19.670949935913086,None,19.670949935913086,None,,,,,,,,,,,,,,,,,,,,,,,,,,,,,,,,,,,,,,,,,,,,,,,,,,,,,,,,,,,,,,,,,,,,,,,,,,,,,,,,,,,,,,001,2021_Jul_29_2334,untitled,2020.2.10,59.945604093270546,
5.9,5.8,6.3,5.8,5.8,,,0,0,0,0,0,3,3,3,,,,,,,,,,,20.704385995864868,None,20.704385995864868,20.704385995864868,20.704385995864868,20.704385995864868,20.704385995864868,20.704385995864868,20.704385995864868,None,20.704385995864868,20.704385995864868,20.704385995864868,None,20.704385995864868,20.704385995864868,0.02962962962962963,-0.2,1,0,0,circle1,0.007884740829467773,None,22.777097940444946,None,22.777097940444946,22.777097940444946,22.777097940444946,22.777097940444946,22.777097940444946,22.777097940444946,22.777097940444946,None,22.777097940444946,22.777097940444946,22.777097940444946,None,22.777097940444946,22.777097940444946,22.777097940444946,22.777097940444946,23.821465015411377,None,23.821465015411377,23.821465015411377,23.821465015411377,23.821465015411377,23.821465015411377,23.821465015411377,23.821465015411377,None,23.821465015411377,23.821465015411377,0.004215717315673828,0.004215717315673828,23.821465015411377,None,None,23.821465015411377,23.821465015411377,0.46296296296296297,-0.18703703703703703,1,0,0,skipsq,0.004215717315673828,None,23.821465015411377,None,23.821465015411377,None,None,None,None,None,None,None,None,None,None,None,None,None,None,None,None,None,None,None,None,None,None,None,,,,,,,,,,,,,,,,,,,,,,,,,,,,,,,,,,,,,,,,,,,,,,,,,,,,,,,,,,,,,,,,,,,,,,,,,,,,,,,,,,,,,,001,2021_Jul_29_2334,untitled,2020.2.10,59.945604093270546,
,,,,,-0.2,-0.6,0,0,0,0,,,,,0,0,0,0,,,,,,,,,,,,,,,,,,,,,,,,,,,,,,,,,,,,,,,,,,,,,,,,,,,,,,,,,,,,,,,,,,,,,,,,,,,,,,,,,,,,,,,,,,,,,,,,,,,,,,25.04833698272705,None,25.04833698272705,None,25.04833698272705,25.04833698272705,25.04833698272705,25.04833698272705,25.04833698272705,None,,,,,,,,,,,,,,,,,,,,,,,,,,,,,,,,,,,,,,,,,,,,,,,,,,,,,,,,,,,,,,,,,,,,,,,,,,,,001,2021_Jul_29_2334,untitled,2020.2.10,59.945604093270546,
,,,,,-0.21,-0.6,0,0,0,0,,,,,0,1,1,1,,,,,,,,,,,,,,,,,,,,,,,,,,,,,,,,,,,,,,,,,,,,,,,,,,,,,,,,,,,,,,,,,,,,,,,,,,,,,,,,,,,,,,,,,,,,,,,,,,,,,,25.234028816223145,25.234028816223145,25.234028816223145,25.234028816223145,25.234028816223145,25.234028816223145,25.234028816223145,25.234028816223145,25.234028816223145,25.234028816223145,,,,,,,,,,,,,,,,,,,,,,,,,,,,,,,,,,,,,,,,,,,,,,,,,,,,,,,,,,,,,,,,,,,,,,,,,,,,001,2021_Jul_29_2334,untitled,2020.2.10,59.945604093270546,
,,,,,-0.22,-0.6,0,0,0,0,,,,,0,2,2,2,,,,,,,,,,,,,,,,,,,,,,,,,,,,,,,,,,,,,,,,,,,,,,,,,,,,,,,,,,,,,,,,,,,,,,,,,,,,,,,,,,,,,,,,,,,,,,,,,,,,,,25.429033994674683,25.429033994674683,25.429033994674683,25.429033994674683,25.429033994674683,25.429033994674683,25.429033994674683,25.429033994674683,25.429033994674683,25.429033994674683,,,,,,,,,,,,,,,,,,,,,,,,,,,,,,,,,,,,,,,,,,,,,,,,,,,,,,,,,,,,,,,,,,,,,,,,,,,,001,2021_Jul_29_2334,untitled,2020.2.10,59.945604093270546,
,,,,,-0.23,-0.6,0,0,0,0,,,,,0,3,3,3,,,,,,,,,,,,,,,,,,,,,,,,,,,,,,,,,,,,,,,,,,,,,,,,,,,,,,,,,,,,,,,,,,,,,,,,,,,,,,,,,,,,,,,,,,,,,,,,,,,,,,25.62852382659912,25.62852382659912,25.62852382659912,25.62852382659912,25.62852382659912,25.62852382659912,25.62852382659912,25.62852382659912,25.62852382659912,25.62852382659912,,,,,,,,,,,,,,,,,,,,,,,,,,,,,,,,,,,,,,,,,,,,,,,,,,,,,,,,,,,,,,,,,,,,,,,,,,,,001,2021_Jul_29_2334,untitled,2020.2.10,59.945604093270546,
,,,,,-0.24,-0.6,0,0,0,0,,,,,0,4,4,4,,,,,,,,,,,,,,,,,,,,,,,,,,,,,,,,,,,,,,,,,,,,,,,,,,,,,,,,,,,,,,,,,,,,,,,,,,,,,,,,,,,,,,,,,,,,,,,,,,,,,,25.8231999874115,25.8231999874115,25.8231999874115,25.8231999874115,25.8231999874115,25.8231999874115,25.8231999874115,25.8231999874115,25.8231999874115,25.8231999874115,,,,,,,,,,,,,,,,,,,,,,,,,,,,,,,,,,,,,,,,,,,,,,,,,,,,,,,,,,,,,,,,,,,,,,,,,,,,001,2021_Jul_29_2334,untitled,2020.2.10,59.945604093270546,
,,,,,-0.25,-0.6,0,0,0,0,,,,,0,5,5,5,,,,,,,,,,,,,,,,,,,,,,,,,,,,,,,,,,,,,,,,,,,,,,,,,,,,,,,,,,,,,,,,,,,,,,,,,,,,,,,,,,,,,,,,,,,,,,,,,,,,,,26.011215925216675,26.011215925216675,26.011215925216675,26.011215925216675,26.011215925216675,26.011215925216675,26.011215925216675,26.011215925216675,26.011215925216675,26.011215925216675,,,,,,,,,,,,,,,,,,,,,,,,,,,,,,,,,,,,,,,,,,,,,,,,,,,,,,,,,,,,,,,,,,,,,,,,,,,,001,2021_Jul_29_2334,untitled,2020.2.10,59.945604093270546,
,,,,,-0.26,-0.6,0,0,0,0,,,,,0,6,6,6,,,,,,,,,,,,,,,,,,,,,,,,,,,,,,,,,,,,,,,,,,,,,,,,,,,,,,,,,,,,,,,,,,,,,,,,,,,,,,,,,,,,,,,,,,,,,,,,,,,,,,26.21061086654663,26.21061086654663,26.21061086654663,26.21061086654663,26.21061086654663,26.21061086654663,26.21061086654663,26.21061086654663,26.21061086654663,26.21061086654663,,,,,,,,,,,,,,,,,,,,,,,,,,,,,,,,,,,,,,,,,,,,,,,,,,,,,,,,,,,,,,,,,,,,,,,,,,,,001,2021_Jul_29_2334,untitled,2020.2.10,59.945604093270546,
,,,,,-0.27,-0.6,0,0,0,0,,,,,0,7,7,7,,,,,,,,,,,,,,,,,,,,,,,,,,,,,,,,,,,,,,,,,,,,,,,,,,,,,,,,,,,,,,,,,,,,,,,,,,,,,,,,,,,,,,,,,,,,,,,,,,,,,,26.410255908966064,26.410255908966064,26.410255908966064,26.410255908966064,26.410255908966064,26.410255908966064,26.410255908966064,26.410255908966064,26.410255908966064,26.410255908966064,,,,,,,,,,,,,,,,,,,,,,,,,,,,,,,,,,,,,,,,,,,,,,,,,,,,,,,,,,,,,,,,,,,,,,,,,,,,001,2021_Jul_29_2334,untitled,2020.2.10,59.945604093270546,
,,,,,-0.28,-0.6,0,0,0,0,,,,,0,8,8,8,,,,,,,,,,,,,,,,,,,,,,,,,,,,,,,,,,,,,,,,,,,,,,,,,,,,,,,,,,,,,,,,,,,,,,,,,,,,,,,,,,,,,,,,,,,,,,,,,,,,,,26.60970187187195,26.60970187187195,26.60970187187195,26.60970187187195,26.60970187187195,26.60970187187195,26.60970187187195,26.60970187187195,26.60970187187195,26.60970187187195,,,,,,,,,,,,,,,,,,,,,,,,,,,,,,,,,,,,,,,,,,,,,,,,,,,,,,,,,,,,,,,,,,,,,,,,,,,,001,2021_Jul_29_2334,untitled,2020.2.10,59.945604093270546,
,,,,,-0.29,-0.6,0,0,0,0,,,,,0,9,9,9,,,,,,,,,,,,,,,,,,,,,,,,,,,,,,,,,,,,,,,,,,,,,,,,,,,,,,,,,,,,,,,,,,,,,,,,,,,,,,,,,,,,,,,,,,,,,,,,,,,,,,26.80912494659424,26.80912494659424,26.80912494659424,26.80912494659424,26.80912494659424,26.80912494659424,26.80912494659424,26.80912494659424,26.80912494659424,26.80912494659424,,,,,,,,,,,,,,,,,,,,,,,,,,,,,,,,,,,,,,,,,,,,,,,,,,,,,,,,,,,,,,,,,,,,,,,,,,,,001,2021_Jul_29_2334,untitled,2020.2.10,59.945604093270546,
,,,,,-0.3,-0.6,0,0,0,0,,,,,0,10,10,10,,,,,,,,,,,,,,,,,,,,,,,,,,,,,,,,,,,,,,,,,,,,,,,,,,,,,,,,,,,,,,,,,,,,,,,,,,,,,,,,,,,,,,,,,,,,,,,,,,,,,,27.004644870758057,27.004644870758057,27.004644870758057,27.004644870758057,27.004644870758057,27.004644870758057,27.004644870758057,27.004644870758057,27.004644870758057,27.004644870758057,,,,,,,,,,,,,,,,,,,,,,,,,,,,,,,,,,,,,,,,,,,,,,,,,,,,,,,,,,,,,,,,,,,,,,,,,,,,001,2021_Jul_29_2334,untitled,2020.2.10,59.945604093270546,
,,,,,-0.31,-0.6,0,0,0,0,,,,,0,11,11,11,,,,,,,,,,,,,,,,,,,,,,,,,,,,,,,,,,,,,,,,,,,,,,,,,,,,,,,,,,,,,,,,,,,,,,,,,,,,,,,,,,,,,,,,,,,,,,,,,,,,,,27.129645824432373,None,27.129645824432373,None,27.129645824432373,27.129645824432373,27.129645824432373,27.129645824432373,27.129645824432373,None,,,,,,,,,,,,,,,,,,,,,,,,,,,,,,,,,,,,,,,,,,,,,,,,,,,,,,,,,,,,,,,,,,,,,,,,,,,,001,2021_Jul_29_2334,untitled,2020.2.10,59.945604093270546,
,,,,,-0.32,-0.6,0,0,0,0,,,,,0,12,12,12,,,,,,,,,,,,,,,,,,,,,,,,,,,,,,,,,,,,,,,,,,,,,,,,,,,,,,,,,,,,,,,,,,,,,,,,,,,,,,,,,,,,,,,,,,,,,,,,,,,,,,27.25680184364319,None,27.25680184364319,None,27.25680184364319,27.25680184364319,27.25680184364319,27.25680184364319,27.25680184364319,None,,,,,,,,,,,,,,,,,,,,,,,,,,,,,,,,,,,,,,,,,,,,,,,,,,,,,,,,,,,,,,,,,,,,,,,,,,,,001,2021_Jul_29_2334,untitled,2020.2.10,59.945604093270546,
,,,,,-0.33,-0.6,0,0,0,0,,,,,0,13,13,13,,,,,,,,,,,,,,,,,,,,,,,,,,,,,,,,,,,,,,,,,,,,,,,,,,,,,,,,,,,,,,,,,,,,,,,,,,,,,,,,,,,,,,,,,,,,,,,,,,,,,,27.34262990951538,None,27.34262990951538,None,27.34262990951538,27.34262990951538,27.34262990951538,27.34262990951538,27.34262990951538,None,,,,,,,,,,,,,,,,,,,,,,,,,,,,,,,,,,,,,,,,,,,,,,,,,,,,,,,,,,,,,,,,,,,,,,,,,,,,001,2021_Jul_29_2334,untitled,2020.2.10,59.945604093270546,
,,,,,-0.34,-0.6,0,0,0,0,,,,,0,14,14,14,,,,,,,,,,,,,,,,,,,,,,,,,,,,,,,,,,,,,,,,,,,,,,,,,,,,,,,,,,,,,,,,,,,,,,,,,,,,,,,,,,,,,,,,,,,,,,,,,,,,,,27.430680990219116,None,27.430680990219116,None,27.430680990219116,27.430680990219116,27.430680990219116,27.430680990219116,27.430680990219116,None,,,,,,,,,,,,,,,,,,,,,,,,,,,,,,,,,,,,,,,,,,,,,,,,,,,,,,,,,,,,,,,,,,,,,,,,,,,,001,2021_Jul_29_2334,untitled,2020.2.10,59.945604093270546,
,,,,,-0.35,-0.6,0,0,0,0,,,,,0,15,15,15,,,,,,,,,,,,,,,,,,,,,,,,,,,,,,,,,,,,,,,,,,,,,,,,,,,,,,,,,,,,,,,,,,,,,,,,,,,,,,,,,,,,,,,,,,,,,,,,,,,,,,27.558784008026123,None,27.558784008026123,None,27.558784008026123,27.558784008026123,27.558784008026123,27.558784008026123,27.558784008026123,None,,,,,,,,,,,,,,,,,,,,,,,,,,,,,,,,,,,,,,,,,,,,,,,,,,,,,,,,,,,,,,,,,,,,,,,,,,,,001,2021_Jul_29_2334,untitled,2020.2.10,59.945604093270546,
,,,,,-0.36,-0.6,0,0,0,0,,,,,0,16,16,16,,,,,,,,,,,,,,,,,,,,,,,,,,,,,,,,,,,,,,,,,,,,,,,,,,,,,,,,,,,,,,,,,,,,,,,,,,,,,,,,,,,,,,,,,,,,,,,,,,,,,,27.646546840667725,None,27.646546840667725,None,27.646546840667725,27.646546840667725,27.646546840667725,27.646546840667725,27.646546840667725,None,,,,,,,,,,,,,,,,,,,,,,,,,,,,,,,,,,,,,,,,,,,,,,,,,,,,,,,,,,,,,,,,,,,,,,,,,,,,001,2021_Jul_29_2334,untitled,2020.2.10,59.945604093270546,
,,,,,-0.37,-0.6,0,0,0,0,,,,,0,17,17,17,,,,,,,,,,,,,,,,,,,,,,,,,,,,,,,,,,,,,,,,,,,,,,,,,,,,,,,,,,,,,,,,,,,,,,,,,,,,,,,,,,,,,,,,,,,,,,,,,,,,,,27.734505891799927,None,27.734505891799927,None,27.734505891799927,27.734505891799927,27.734505891799927,27.734505891799927,27.734505891799927,None,,,,,,,,,,,,,,,,,,,,,,,,,,,,,,,,,,,,,,,,,,,,,,,,,,,,,,,,,,,,,,,,,,,,,,,,,,,,001,2021_Jul_29_2334,untitled,2020.2.10,59.945604093270546,
,,,,,-0.38,-0.6,0,0,0,0,,,,,0,18,18,18,,,,,,,,,,,,,,,,,,,,,,,,,,,,,,,,,,,,,,,,,,,,,,,,,,,,,,,,,,,,,,,,,,,,,,,,,,,,,,,,,,,,,,,,,,,,,,,,,,,,,,27.862682819366455,None,27.862682819366455,None,27.862682819366455,27.862682819366455,27.862682819366455,27.862682819366455,27.862682819366455,None,,,,,,,,,,,,,,,,,,,,,,,,,,,,,,,,,,,,,,,,,,,,,,,,,,,,,,,,,,,,,,,,,,,,,,,,,,,,001,2021_Jul_29_2334,untitled,2020.2.10,59.945604093270546,
,,,,,-0.39,-0.6,0,0,0,0,,,,,0,19,19,19,,,,,,,,,,,,,,,,,,,,,,,,,,,,,,,,,,,,,,,,,,,,,,,,,,,,,,,,,,,,,,,,,,,,,,,,,,,,,,,,,,,,,,,,,,,,,,,,,,,,,,27.950706005096436,None,27.950706005096436,None,27.950706005096436,27.950706005096436,27.950706005096436,27.950706005096436,27.950706005096436,None,,,,,,,,,,,,,,,,,,,,,,,,,,,,,,,,,,,,,,,,,,,,,,,,,,,,,,,,,,,,,,,,,,,,,,,,,,,,001,2021_Jul_29_2334,untitled,2020.2.10,59.945604093270546,
,,,,,-0.4,0.0,0,0,0,0,,,,,0,20,20,20,,,,,,,,,,,,,,,,,,,,,,,,,,,,,,,,,,,,,,,,,,,,,,,,,,,,,,,,,,,,,,,,,,,,,,,,,,,,,,,,,,,,,,,,,,,,,,,,,,,,,,28.038676977157593,None,28.038676977157593,None,28.038676977157593,28.038676977157593,28.038676977157593,28.038676977157593,28.038676977157593,None,,,,,,,,,,,,,,,,,,,,,,,,,,,,,,,,,,,,,,,,,,,,,,,,,,,,,,,,,,,,,,,,,,,,,,,,,,,,001,2021_Jul_29_2334,untitled,2020.2.10,59.945604093270546,
,,,,,-0.6,-0.01,0,0,0,0,,,,,0,21,21,21,,,,,,,,,,,,,,,,,,,,,,,,,,,,,,,,,,,,,,,,,,,,,,,,,,,,,,,,,,,,,,,,,,,,,,,,,,,,,,,,,,,,,,,,,,,,,,,,,,,,,,28.126582860946655,None,28.126582860946655,None,28.126582860946655,28.126582860946655,28.126582860946655,28.126582860946655,28.126582860946655,None,,,,,,,,,,,,,,,,,,,,,,,,,,,,,,,,,,,,,,,,,,,,,,,,,,,,,,,,,,,,,,,,,,,,,,,,,,,,001,2021_Jul_29_2334,untitled,2020.2.10,59.945604093270546,
,,,,,-0.6,-0.02,0,0,0,0,,,,,0,22,22,22,,,,,,,,,,,,,,,,,,,,,,,,,,,,,,,,,,,,,,,,,,,,,,,,,,,,,,,,,,,,,,,,,,,,,,,,,,,,,,,,,,,,,,,,,,,,,,,,,,,,,,28.243830919265747,None,28.243830919265747,None,28.243830919265747,28.243830919265747,28.243830919265747,28.243830919265747,28.243830919265747,None,,,,,,,,,,,,,,,,,,,,,,,,,,,,,,,,,,,,,,,,,,,,,,,,,,,,,,,,,,,,,,,,,,,,,,,,,,,,001,2021_Jul_29_2334,untitled,2020.2.10,59.945604093270546,
,,,,,-0.6,-0.03,0,0,0,0,,,,,0,23,23,23,,,,,,,,,,,,,,,,,,,,,,,,,,,,,,,,,,,,,,,,,,,,,,,,,,,,,,,,,,,,,,,,,,,,,,,,,,,,,,,,,,,,,,,,,,,,,,,,,,,,,,28.32278800010681,None,28.32278800010681,None,28.32278800010681,28.32278800010681,28.32278800010681,28.32278800010681,28.32278800010681,None,,,,,,,,,,,,,,,,,,,,,,,,,,,,,,,,,,,,,,,,,,,,,,,,,,,,,,,,,,,,,,,,,,,,,,,,,,,,001,2021_Jul_29_2334,untitled,2020.2.10,59.945604093270546,
,,,,,-0.6,-0.04,0,0,0,0,,,,,0,24,24,24,,,,,,,,,,,,,,,,,,,,,,,,,,,,,,,,,,,,,,,,,,,,,,,,,,,,,,,,,,,,,,,,,,,,,,,,,,,,,,,,,,,,,,,,,,,,,,,,,,,,,,28.440298795700073,None,28.440298795700073,None,28.440298795700073,28.440298795700073,28.440298795700073,28.440298795700073,28.440298795700073,None,,,,,,,,,,,,,,,,,,,,,,,,,,,,,,,,,,,,,,,,,,,,,,,,,,,,,,,,,,,,,,,,,,,,,,,,,,,,001,2021_Jul_29_2334,untitled,2020.2.10,59.945604093270546,
,,,,,-0.6,-0.05,0,0,0,0,,,,,0,25,25,25,,,,,,,,,,,,,,,,,,,,,,,,,,,,,,,,,,,,,,,,,,,,,,,,,,,,,,,,,,,,,,,,,,,,,,,,,,,,,,,,,,,,,,,,,,,,,,,,,,,,,,28.55846095085144,None,28.55846095085144,None,28.55846095085144,28.55846095085144,28.55846095085144,28.55846095085144,28.55846095085144,None,,,,,,,,,,,,,,,,,,,,,,,,,,,,,,,,,,,,,,,,,,,,,,,,,,,,,,,,,,,,,,,,,,,,,,,,,,,,001,2021_Jul_29_2334,untitled,2020.2.10,59.945604093270546,
,,,,,-0.6,-0.06,0,0,0,0,,,,,0,26,26,26,,,,,,,,,,,,,,,,,,,,,,,,,,,,,,,,,,,,,,,,,,,,,,,,,,,,,,,,,,,,,,,,,,,,,,,,,,,,,,,,,,,,,,,,,,,,,,,,,,,,,,28.642993927001953,None,28.642993927001953,None,28.642993927001953,28.642993927001953,28.642993927001953,28.642993927001953,28.642993927001953,None,,,,,,,,,,,,,,,,,,,,,,,,,,,,,,,,,,,,,,,,,,,,,,,,,,,,,,,,,,,,,,,,,,,,,,,,,,,,001,2021_Jul_29_2334,untitled,2020.2.10,59.945604093270546,
,,,,,-0.6,-0.07,0,0,0,0,,,,,0,27,27,27,,,,,,,,,,,,,,,,,,,,,,,,,,,,,,,,,,,,,,,,,,,,,,,,,,,,,,,,,,,,,,,,,,,,,,,,,,,,,,,,,,,,,,,,,,,,,,,,,,,,,,28.729315996170044,None,28.729315996170044,None,28.729315996170044,28.729315996170044,28.729315996170044,28.729315996170044,28.729315996170044,None,,,,,,,,,,,,,,,,,,,,,,,,,,,,,,,,,,,,,,,,,,,,,,,,,,,,,,,,,,,,,,,,,,,,,,,,,,,,001,2021_Jul_29_2334,untitled,2020.2.10,59.945604093270546,
,,,,,-0.6,-0.08,0,0,0,0,,,,,0,28,28,28,,,,,,,,,,,,,,,,,,,,,,,,,,,,,,,,,,,,,,,,,,,,,,,,,,,,,,,,,,,,,,,,,,,,,,,,,,,,,,,,,,,,,,,,,,,,,,,,,,,,,,28.855849981307983,None,28.855849981307983,None,28.855849981307983,28.855849981307983,28.855849981307983,28.855849981307983,28.855849981307983,None,,,,,,,,,,,,,,,,,,,,,,,,,,,,,,,,,,,,,,,,,,,,,,,,,,,,,,,,,,,,,,,,,,,,,,,,,,,,001,2021_Jul_29_2334,untitled,2020.2.10,59.945604093270546,
,,,,,-0.6,-0.09,0,0,0,0,,,,,0,29,29,29,,,,,,,,,,,,,,,,,,,,,,,,,,,,,,,,,,,,,,,,,,,,,,,,,,,,,,,,,,,,,,,,,,,,,,,,,,,,,,,,,,,,,,,,,,,,,,,,,,,,,,28.942397832870483,None,28.942397832870483,None,28.942397832870483,28.942397832870483,28.942397832870483,28.942397832870483,28.942397832870483,None,,,,,,,,,,,,,,,,,,,,,,,,,,,,,,,,,,,,,,,,,,,,,,,,,,,,,,,,,,,,,,,,,,,,,,,,,,,,001,2021_Jul_29_2334,untitled,2020.2.10,59.945604093270546,
,,,,,-0.6,-0.1,0,0,0,0,,,,,0,30,30,30,,,,,,,,,,,,,,,,,,,,,,,,,,,,,,,,,,,,,,,,,,,,,,,,,,,,,,,,,,,,,,,,,,,,,,,,,,,,,,,,,,,,,,,,,,,,,,,,,,,,,,29.063098907470703,None,29.063098907470703,None,29.063098907470703,29.063098907470703,29.063098907470703,29.063098907470703,29.063098907470703,None,,,,,,,,,,,,,,,,,,,,,,,,,,,,,,,,,,,,,,,,,,,,,,,,,,,,,,,,,,,,,,,,,,,,,,,,,,,,001,2021_Jul_29_2334,untitled,2020.2.10,59.945604093270546,
,,,,,-0.6,-0.11,0,0,0,0,,,,,0,31,31,31,,,,,,,,,,,,,,,,,,,,,,,,,,,,,,,,,,,,,,,,,,,,,,,,,,,,,,,,,,,,,,,,,,,,,,,,,,,,,,,,,,,,,,,,,,,,,,,,,,,,,,29.14215898513794,None,29.14215898513794,None,29.14215898513794,29.14215898513794,29.14215898513794,29.14215898513794,29.14215898513794,None,,,,,,,,,,,,,,,,,,,,,,,,,,,,,,,,,,,,,,,,,,,,,,,,,,,,,,,,,,,,,,,,,,,,,,,,,,,,001,2021_Jul_29_2334,untitled,2020.2.10,59.945604093270546,
,,,,,-0.6,-0.12,0,0,0,0,,,,,0,32,32,32,,,,,,,,,,,,,,,,,,,,,,,,,,,,,,,,,,,,,,,,,,,,,,,,,,,,,,,,,,,,,,,,,,,,,,,,,,,,,,,,,,,,,,,,,,,,,,,,,,,,,,29.220990896224976,None,29.220990896224976,None,29.220990896224976,29.220990896224976,29.220990896224976,29.220990896224976,29.220990896224976,None,,,,,,,,,,,,,,,,,,,,,,,,,,,,,,,,,,,,,,,,,,,,,,,,,,,,,,,,,,,,,,,,,,,,,,,,,,,,001,2021_Jul_29_2334,untitled,2020.2.10,59.945604093270546,
,,,,,-0.6,-0.13,0,0,0,0,,,,,0,33,33,33,,,,,,,,,,,,,,,,,,,,,,,,,,,,,,,,,,,,,,,,,,,,,,,,,,,,,,,,,,,,,,,,,,,,,,,,,,,,,,,,,,,,,,,,,,,,,,,,,,,,,,29.338876008987427,None,29.338876008987427,None,29.338876008987427,29.338876008987427,29.338876008987427,29.338876008987427,29.338876008987427,None,,,,,,,,,,,,,,,,,,,,,,,,,,,,,,,,,,,,,,,,,,,,,,,,,,,,,,,,,,,,,,,,,,,,,,,,,,,,001,2021_Jul_29_2334,untitled,2020.2.10,59.945604093270546,
,,,,,-0.6,-0.14,0,0,0,0,,,,,0,34,34,34,,,,,,,,,,,,,,,,,,,,,,,,,,,,,,,,,,,,,,,,,,,,,,,,,,,,,,,,,,,,,,,,,,,,,,,,,,,,,,,,,,,,,,,,,,,,,,,,,,,,,,29.426917791366577,None,29.426917791366577,None,29.426917791366577,29.426917791366577,29.426917791366577,29.426917791366577,29.426917791366577,None,,,,,,,,,,,,,,,,,,,,,,,,,,,,,,,,,,,,,,,,,,,,,,,,,,,,,,,,,,,,,,,,,,,,,,,,,,,,001,2021_Jul_29_2334,untitled,2020.2.10,59.945604093270546,
,,,,,-0.6,-0.15,0,0,0,0,,,,,0,35,35,35,,,,,,,,,,,,,,,,,,,,,,,,,,,,,,,,,,,,,,,,,,,,,,,,,,,,,,,,,,,,,,,,,,,,,,,,,,,,,,,,,,,,,,,,,,,,,,,,,,,,,,29.55463981628418,None,29.55463981628418,None,29.55463981628418,29.55463981628418,29.55463981628418,29.55463981628418,29.55463981628418,None,,,,,,,,,,,,,,,,,,,,,,,,,,,,,,,,,,,,,,,,,,,,,,,,,,,,,,,,,,,,,,,,,,,,,,,,,,,,001,2021_Jul_29_2334,untitled,2020.2.10,59.945604093270546,
,,,,,-0.6,-0.16,0,0,0,0,,,,,0,36,36,36,,,,,,,,,,,,,,,,,,,,,,,,,,,,,,,,,,,,,,,,,,,,,,,,,,,,,,,,,,,,,,,,,,,,,,,,,,,,,,,,,,,,,,,,,,,,,,,,,,,,,,29.6424880027771,None,29.6424880027771,None,29.6424880027771,29.6424880027771,29.6424880027771,29.6424880027771,29.6424880027771,None,,,,,,,,,,,,,,,,,,,,,,,,,,,,,,,,,,,,,,,,,,,,,,,,,,,,,,,,,,,,,,,,,,,,,,,,,,,,001,2021_Jul_29_2334,untitled,2020.2.10,59.945604093270546,
,,,,,-0.6,-0.17,0,0,0,0,,,,,0,37,37,37,,,,,,,,,,,,,,,,,,,,,,,,,,,,,,,,,,,,,,,,,,,,,,,,,,,,,,,,,,,,,,,,,,,,,,,,,,,,,,,,,,,,,,,,,,,,,,,,,,,,,,29.730347871780396,None,29.730347871780396,None,29.730347871780396,29.730347871780396,29.730347871780396,29.730347871780396,29.730347871780396,None,,,,,,,,,,,,,,,,,,,,,,,,,,,,,,,,,,,,,,,,,,,,,,,,,,,,,,,,,,,,,,,,,,,,,,,,,,,,001,2021_Jul_29_2334,untitled,2020.2.10,59.945604093270546,
,,,,,-0.6,-0.18,0,0,0,0,,,,,0,38,38,38,,,,,,,,,,,,,,,,,,,,,,,,,,,,,,,,,,,,,,,,,,,,,,,,,,,,,,,,,,,,,,,,,,,,,,,,,,,,,,,,,,,,,,,,,,,,,,,,,,,,,,29.858261823654175,None,29.858261823654175,None,29.858261823654175,29.858261823654175,29.858261823654175,29.858261823654175,29.858261823654175,None,,,,,,,,,,,,,,,,,,,,,,,,,,,,,,,,,,,,,,,,,,,,,,,,,,,,,,,,,,,,,,,,,,,,,,,,,,,,001,2021_Jul_29_2334,untitled,2020.2.10,59.945604093270546,
,,,,,-0.6,-0.19,0,0,0,0,,,,,0,39,39,39,,,,,,,,,,,,,,,,,,,,,,,,,,,,,,,,,,,,,,,,,,,,,,,,,,,,,,,,,,,,,,,,,,,,,,,,,,,,,,,,,,,,,,,,,,,,,,,,,,,,,,29.946252822875977,None,29.946252822875977,None,29.946252822875977,29.946252822875977,29.946252822875977,29.946252822875977,29.946252822875977,None,,,,,,,,,,,,,,,,,,,,,,,,,,,,,,,,,,,,,,,,,,,,,,,,,,,,,,,,,,,,,,,,,,,,,,,,,,,,001,2021_Jul_29_2334,untitled,2020.2.10,59.945604093270546,
,,,,,-0.6,-0.2,0,0,0,0,,,,,0,40,40,40,,,,,,,,,,,,,,,,,,,,,,,,,,,,,,,,,,,,,,,,,,,,,,,,,,,,,,,,,,,,,,,,,,,,,,,,,,,,,,,,,,,,,,,,,,,,,,,,,,,,,,30.034219980239868,None,30.034219980239868,None,30.034219980239868,30.034219980239868,30.034219980239868,30.034219980239868,30.034219980239868,None,,,,,,,,,,,,,,,,,,,,,,,,,,,,,,,,,,,,,,,,,,,,,,,,,,,,,,,,,,,,,,,,,,,,,,,,,,,,001,2021_Jul_29_2334,untitled,2020.2.10,59.945604093270546,
7.5,7.3,7.6,7.1,7.4,,,0,0,0,0,,,,,,,,,0,0,0,0,,,,,,,,,,,,,,,,,,,,,,,,,,,,,,,,,,,,,,,,,,,,,,,,,,,,,,,,,,,,,,,,,,,,,,,,,,,,,,,,,,,,,,,,,,,,,,,,,,,,,,,,,,,,30.184759855270386,30.184759855270386,30.184759855270386,None,30.184759855270386,30.184759855270386,30.184759855270386,30.184759855270386,30.184759855270386,None,30.184759855270386,None,0.5333333333333333,-0.17777777777777778,1,0,0,0.002209901809692383,None,31.314826011657715,31.314826011657715,31.314826011657715,None,31.314826011657715,31.314826011657715,31.314826011657715,31.314826011657715,31.314826011657715,None,31.314826011657715,31.314826011657715,31.314826011657715,None,32.3349928855896,32.3349928855896,32.3349928855896,None,32.3349928855896,32.3349928855896,32.3349928855896,32.3349928855896,32.3349928855896,None,32.3349928855896,32.3349928855896,32.3349928855896,None,0.462037037037037,-0.14814814814814814,1,0,0,tree2_5,0.0041656494140625,None,32.3349928855896,None,32.3349928855896,None,39.13402485847473,39.13402485847473,39.13402485847473,None,39.13402485847473,39.13402485847473,39.13402485847473,39.13402485847473,39.13402485847473,None,39.13402485847473,None,39.13402485847473,None,,,001,2021_Jul_29_2334,untitled,2020.2.10,59.945604093270546,
7.1,6.9,7.1,6.6,6.8,,,0,0,0,0,,,,,,,,,0,1,1,1,,,,,,,,,,,,,,,,,,,,,,,,,,,,,,,,,,,,,,,,,,,,,,,,,,,,,,,,,,,,,,,,,,,,,,,,,,,,,,,,,,,,,,,,,,,,,,,,,,,,,,,,,,,,40.14892888069153,40.14892888069153,40.14892888069153,None,40.14892888069153,40.14892888069153,40.14892888069153,40.14892888069153,40.14892888069153,None,40.14892888069153,None,-0.016666666666666666,-0.18981481481481483,1,0,0,0.007349729537963867,None,41.45623993873596,41.45623993873596,41.45623993873596,None,41.45623993873596,41.45623993873596,41.45623993873596,41.45623993873596,41.45623993873596,None,41.45623993873596,41.45623993873596,41.45623993873596,None,42.49636197090149,42.49636197090149,42.49636197090149,None,42.49636197090149,42.49636197090149,42.49636197090149,42.49636197090149,42.49636197090149,None,42.49636197090149,42.49636197090149,42.49636197090149,None,-0.49444444444444446,-0.1574074074074074,1,0,0,skipsq_2,0.01412057876586914,None,42.49636197090149,None,42.49636197090149,None,43.64190983772278,43.64190983772278,43.64190983772278,None,43.64190983772278,43.64190983772278,43.64190983772278,43.64190983772278,43.64190983772278,None,43.64190983772278,None,43.64190983772278,None,circle,,001,2021_Jul_29_2334,untitled,2020.2.10,59.945604093270546,
,,,,,,,0,0,0,0,,,,,,,,,,,,,,,,,,,,,,,,,,,,,,,,,,,,,,,,,,,,,,,,,,,,,,,,,,,,,,,,,,,,,,,,,,,,,,,,,,,,,,,,,,,,,,,,,,,,,,,,,,,,,,,,,,,,,,,,,,,,,,,,,,,,,,,,,,,,,,,,,,,,,,,,,,,,,,,,,,,,,,,,,,,,,,,,,,,,,,,,,,,,,,,,,,,001,2021_Jul_29_2334,untitled,2020.2.10,59.945604093270546,
7.5,7.3,7.6,7.1,7.4,,,1,0,1,0,0,0,0,0,,,,,,,,,,,44.70611786842346,None,44.70611786842346,44.70611786842346,44.70611786842346,44.70611786842346,44.70611786842346,44.70611786842346,44.70611786842346,None,44.70611786842346,44.70611786842346,44.70611786842346,None,44.70611786842346,44.70611786842346,-0.008333333333333333,-0.20925925925925926,1,0,0,circle1,0.0001895427703857422,None,47.235527992248535,None,47.235527992248535,47.235527992248535,47.235527992248535,47.235527992248535,47.235527992248535,47.235527992248535,47.235527992248535,None,47.235527992248535,47.235527992248535,47.235527992248535,None,47.235527992248535,47.235527992248535,47.235527992248535,47.235527992248535,48.2749810218811,None,48.2749810218811,48.2749810218811,48.2749810218811,48.2749810218811,48.2749810218811,48.2749810218811,48.2749810218811,None,48.2749810218811,48.2749810218811,0.0036296844482421875,0.0036296844482421875,48.2749810218811,None,None,48.2749810218811,48.2749810218811,-0.4842592592592593,-0.20555555555555555,1,0,0,tree1_4,0.0036296844482421875,None,48.2749810218811,None,48.2749810218811,None,49.85921287536621,None,49.85921287536621,49.85921287536621,49.85921287536621,49.85921287536621,49.85921287536621,49.85921287536621,49.85921287536621,None,49.85921287536621,49.85921287536621,49.85921287536621,None,49.85921287536621,49.85921287536621,49.85921287536621,49.85921287536621,49.85921287536621,None,49.85921287536621,None,,,,,,,,,,,,,,,,,,,,,,,,,,,,,,,,,,,,,,,,,,,,,,,,,,,,,,,,,,,,,,,,,,,,,,,,,,,,,,,,,,,,,,001,2021_Jul_29_2334,untitled,2020.2.10,59.945604093270546,
,,,,,,,,,,,,,,,,,,,,,,,,,50.87059283256531,None,50.87059283256531,50.87059283256531,50.87059283256531,50.87059283256531,50.87059283256531,50.87059283256531,50.87059283256531,None,50.87059283256531,50.87059283256531,50.87059283256531,None,50.87059283256531,50.87059283256531,0.018518518518518517,-0.19537037037037036,1,0,0,circle1,0.01302790641784668,None,51.61347985267639,None,51.61347985267639,51.61347985267639,51.61347985267639,51.61347985267639,51.61347985267639,51.61347985267639,51.61347985267639,None,51.61347985267639,51.61347985267639,51.61347985267639,None,51.61347985267639,51.61347985267639,51.61347985267639,51.61347985267639,,,,,,,,,,,,,,,,,,,,,,,,,,,,,,,,,,,,,,,,,,,,,,,,,,,,,,,,,,,,,,,,,,,,,,,,,,,,,,,,,,,,,,,,,,,,,,,,,,,,,,,,,,,,,,,,,,,,,,,,,,,,,,,,,,,,,,,,,,,,,,,,
